File: resorufin_10x_frittedTiCt_FTOWE_AgAgClref_N2sparge_3_16_CV_C12/resorufin_10x_frittedTiCt_FTOWE_AgAgClref_N2sparge_3_02_CV_C12.txt
EC-Lab ASCII FILE
Nb header lines : 59

Cyclic Voltammetry

Run on channel : 12 (SN 15159)
User :
CE vs. WE compliance from -10 V to 10 V
Electrode connection : standard
Potential control : Ewe
Ewe ctrl range : min = -2.50 V, max = 2.50 V
Safety Limits :
	Do not start on E overload
Acquisition started on : 06/27/2024 22:37:21.030
Technique started on : 06/27/2024 22:37:51.081
Loaded Setting File :  NONE
Saved on :
	File : resorufin_10x_frittedTiCt_FTOWE_AgAgClref_N2sparge_3_02_CV_C12.mpr
	Directory : C:\Users\user\OneDrive - California Institute of Technology\Desktop\Big James\06272024_resorufin_spEC_test\
	Host : 10.8.34.190
Device : VMP3 (SN 1026)
Address : 131.215.231.69
EC-Lab for windows v11.50 (software)
Internet server v11.52 (firmware)
Command interpretor v11.50 (firmware)
Electrode material : Au/Pd
Initial state :
Electrolyte : NaCl (0.2M)
Comments : Fe(CN)63-/Fe(CN)64- 5.10-3 M
Reference electrode : SCE Saturated Calomel Electrode (0.241 V)
Electrode surface area : 0.001 cm²
Characteristic mass : 0.001 g
Equivalent Weight : 0.000 g/eq.
Density : 0.000 g/cm3
Volume (V) : 0.001 cm³
Cycle Definition : Charge/Discharge alternance
Ei (V)              0.000
vs.                 Eoc
dE/dt               2000.000
dE/dt unit          mV/s
E1 (V)              1.000
vs.                 Ref
Step percent        50
N                   10
E range min (V)     -2.500
E range max (V)     2.500
I Range             Auto
I Range min         Unset
I Range max         Unset
I Range init        Unset
Bandwidth           5
E2 (V)              -1.000
vs.                 Ref
nc cycles           10
Reverse Scan        1
Ef (V)              0.000
vs.                 Eoc

mode	ox/red	error	control changes	counter inc.	time/s	control/V	Ewe/V	<I>/mA	cycle number	(Q-Qo)/C	I Range	step time/s	P/W
2	0	0	0	0	30.0508	-0.375797	-0.376864	-0.00684808	1	0.0000000E+000	14	0.000000000000000E+000	2.5808e-06
2	1	0	1	0	30.1459	-0.185556	-0.187082	0.148765	1	7.71746e-06	12	0.077	-2.78313e-05
2	1	0	1	0	30.1819	-0.11364	-0.115265	0.191884	1	1.39926e-05	12	0.113	-2.21176e-05
2	1	0	1	0	30.2179	-0.0416244	-0.0431943	0.204958	1	2.14704e-05	12	0.149	-8.85304e-06
2	1	0	1	0	30.2539	0.0303911	0.0288183	0.228596	1	2.95599e-05	12	0.185	6.58776e-06
2	1	0	1	0	30.2899	0.102407	0.100926	0.21253	1	3.74271e-05	12	0.221	2.14499e-05
2	1	0	1	0	30.3259	0.174422	0.172886	0.210223	1	4.47848e-05	12	0.257	3.63446e-05
2	1	0	1	0	30.3619	0.246438	0.244945	0.195713	1	5.19623e-05	12	0.293	4.79389e-05
2	1	0	1	0	30.3979	0.318414	0.31691	0.208563	1	5.93253e-05	12	0.329	6.60957e-05
2	1	0	1	0	30.4339	0.390369	0.388959	0.216104	1	6.70892e-05	12	0.365	8.40556e-05
2	1	0	1	0	30.4699	0.462384	0.460907	0.239938	1	7.53413e-05	12	0.401	0.000110589
2	1	0	1	0	30.5059	0.5344	0.532887	0.250799	1	8.40902e-05	12	0.437	0.000133648
2	1	0	1	0	30.5419	0.606415	0.604797	0.265409	1	9.33018e-05	12	0.473	0.000160519
2	1	0	1	0	30.5779	0.678431	0.676953	0.270442	1	0.00010298	12	0.509	0.000183077
2	1	0	1	0	30.6139	0.750446	0.74889	0.28805	1	0.000113119	12	0.545	0.000215717
2	1	0	1	0	30.6499	0.822362	0.820954	0.301764	1	0.000123758	12	0.581	0.000247734
2	1	0	1	0	30.6859	0.894377	0.892861	0.317283	1	0.000134887	12	0.617	0.00028329
2	1	0	1	0	30.7219	0.966393	0.964963	0.332112	1	0.000146513	12	0.653	0.000320475
2	1	0	1	0	30.7521	0.973595	0.972134	0.294145	1	0.000156202	12	0.6832	0.000285948
2	1	0	1	0	30.7881	0.901579	0.90017	0.274504	1	0.000166439	12	0.7192	0.0002471
2	1	0	1	0	30.8241	0.829563	0.82811	0.252055	1	0.000175872	12	0.7552	0.000208729
2	1	0	1	0	30.8601	0.757648	0.756201	0.237679	1	0.000184603	12	0.7912	0.000179733
2	1	0	1	0	30.8961	0.685632	0.68408	0.211405	1	0.000192689	12	0.8272	0.000144618
2	1	0	1	0	30.9321	0.613617	0.612106	0.198922	1	0.000200127	12	0.8632	0.000121761
2	1	0	1	0	30.9681	0.541601	0.540073	0.17392	1	0.000206897	12	0.8992	9.39295e-05
2	1	0	1	0	31.0041	0.469586	0.468105	0.165937	1	0.000213018	12	0.9352	7.7676e-05
2	1	0	1	0	31.0401	0.39757	0.396092	0.142238	1	0.000218525	12	0.9712	5.63394e-05
2	1	0	1	0	31.0761	0.325555	0.324079	0.134125	1	0.000223393	12	1.0072	4.34669e-05
2	1	0	1	0	31.1121	0.253639	0.252184	0.101925	1	0.000227594	12	1.0432	2.57039e-05
2	1	0	1	0	31.1481	0.181624	0.180111	0.0862848	1	0.000231076	12	1.0792	1.55408e-05
2	1	0	1	0	31.1841	0.109608	0.108196	0.049433	1	0.000233707	12	1.1152	5.34844e-06
2	1	0	1	0	31.2201	0.0375927	0.0360749	0.0265519	1	0.000235231	12	1.1512	9.57858e-07
2	0	0	1	0	31.2561	-0.0344229	-0.0359431	-0.0260648	1	0.000235171	12	0.014	9.3685e-07
2	0	0	1	0	31.2921	-0.106438	-0.108089	-0.0871946	1	0.00023291	12	0.05	9.42481e-06
2	0	0	1	0	31.3281	-0.178354	-0.179776	-0.15013	1	0.000228388	12	0.086	2.69899e-05
2	0	0	1	0	31.3641	-0.25037	-0.251958	-0.180434	1	0.000222377	12	0.122	4.54617e-05
2	0	0	1	0	31.4001	-0.322385	-0.323812	-0.172097	1	0.000216087	12	0.158	5.57271e-05
2	0	0	1	0	31.4361	-0.394401	-0.396035	-0.145702	1	0.000210468	12	0.194	5.77032e-05
2	0	0	1	0	31.4721	-0.466416	-0.467958	-0.12871	1	0.000205555	12	0.23	6.02309e-05
2	0	0	1	0	31.5081	-0.538432	-0.540078	-0.128256	1	0.00020084	12	0.266	6.92685e-05
2	0	0	1	0	31.5441	-0.610347	-0.61173	-0.132084	1	0.000196145	12	0.302	8.07997e-05
2	0	0	1	0	31.5801	-0.682363	-0.683954	-0.14833	1	0.000191121	12	0.338	0.000101451
2	0	0	1	0	31.6161	-0.754378	-0.755897	-0.158859	1	0.000185648	12	0.374	0.000120081
2	0	0	1	0	31.6521	-0.826394	-0.828095	-0.182038	1	0.000179604	12	0.41	0.000150745
2	0	0	1	0	31.6881	-0.89841	-0.899938	-0.188718	1	0.000172957	12	0.446	0.000169834
2	0	0	1	0	31.7241	-0.970425	-0.97197	-0.215736	1	0.000165601	12	0.482	0.000209689
2	0	0	1	1	31.7545	-0.969225	-0.970769	-0.115985	1	0.000160089	12	0.5124	0.000112594
2	0	0	1	1	31.7905	-0.897209	-0.898802	-0.0903095	1	0.000156371	12	0.5484	8.11703e-05
2	0	0	1	1	31.8265	-0.825194	-0.826728	-0.0580635	1	0.000153559	12	0.5844	4.80027e-05
2	0	0	1	1	31.8625	-0.753178	-0.754699	-0.0586869	1	0.000151409	12	0.6204	4.42909e-05
2	0	0	1	1	31.8985	-0.681163	-0.682738	-0.0333005	1	0.000149856	12	0.6564	2.27356e-05
2	0	0	1	1	31.9345	-0.609147	-0.610731	-0.0276287	1	0.000148923	12	0.6924	1.68737e-05
2	1	0	1	1	31.9705	-0.537231	-0.538802	0.00941954	1	0.000148661	12	0.000000000000000E+000	-5.07527e-06
2	1	0	1	1	32.0065	-0.465216	-0.46673	0.0268654	1	0.000149192	12	0.036	-1.25389e-05
2	1	0	1	1	32.0425	-0.3932	-0.394812	0.0705029	1	0.000150694	12	0.072	-2.78354e-05
2	1	0	1	1	32.0765	-0.325186	-0.326714	0.105135	2	0.000153205	12	0.106	-3.43491e-05
2	1	0	1	1	32.1125	-0.25317	-0.254765	0.123403	2	0.000157195	12	0.142	-3.14388e-05
2	1	0	1	1	32.1485	-0.181155	-0.182751	0.172088	2	0.000162646	12	0.178	-3.14492e-05
2	1	0	1	1	32.1845	-0.109239	-0.110799	0.191963	2	0.000169503	12	0.214	-2.12694e-05
2	1	0	1	1	32.2205	-0.0372235	-0.0388578	0.236187	2	0.000177456	12	0.25	-9.17771e-06
2	1	0	1	1	32.2565	0.0347921	0.0333321	0.231027	2	0.000185871	12	0.286	7.70061e-06
2	1	0	1	1	32.2925	0.106808	0.10529	0.222925	2	0.000193815	12	0.322	2.34717e-05
2	1	0	1	1	32.3285	0.178823	0.177351	0.192147	2	0.000201121	12	0.358	3.40775e-05
2	1	0	1	1	32.3645	0.250839	0.249283	0.19853	2	0.000208203	12	0.394	4.94903e-05
2	1	0	1	1	32.4005	0.322754	0.321269	0.197408	2	0.000215472	12	0.43	6.3421e-05
2	1	0	1	1	32.4365	0.39477	0.393245	0.22305	2	0.000223144	12	0.466	8.77131e-05
2	1	0	1	1	32.4725	0.466785	0.465278	0.233793	2	0.000231283	12	0.502	0.000108779
2	1	0	1	1	32.5085	0.538801	0.537167	0.251855	2	0.000239883	12	0.538	0.000135288
2	1	0	1	1	32.5445	0.610816	0.609276	0.253472	2	0.000248949	12	0.574	0.000154435
2	1	0	1	1	32.5805	0.682832	0.681342	0.270478	2	0.000258467	12	0.61	0.000184288
2	1	0	1	1	32.6165	0.754847	0.753452	0.281978	2	0.000268474	12	0.646	0.000212457
2	1	0	1	1	32.6525	0.826763	0.825265	0.301865	2	0.000278964	12	0.682	0.000249119
2	1	0	1	1	32.6885	0.898778	0.897314	0.312961	2	0.000289951	12	0.718	0.000280824
2	1	0	1	1	32.7245	0.970794	0.969299	0.327705	2	0.000301444	12	0.754	0.000317644
2	1	0	1	1	32.7545	0.969594	0.968225	0.292978	2	0.000310877	12	0.784	0.000283669
2	1	0	1	1	32.7905	0.897578	0.896149	0.26745	2	0.000320894	12	0.82	0.000239675
2	1	0	1	1	32.8265	0.825563	0.824182	0.250475	2	0.000330156	12	0.856	0.000206437
2	1	0	1	1	32.8625	0.753647	0.752096	0.226669	2	0.000338717	12	0.892	0.000170477
2	1	0	1	1	32.8985	0.681632	0.6802	0.211911	2	0.000346643	12	0.928	0.000144142
2	1	0	1	1	32.9345	0.609616	0.608037	0.189214	2	0.000353926	12	0.964	0.000115049
2	1	0	1	1	32.9705	0.5376	0.536155	0.179516	2	0.000360543	12	1	9.62484e-05
2	1	0	1	1	33.0065	0.465585	0.464083	0.155582	2	0.00036654	12	1.036	7.2203e-05
2	1	0	1	1	33.0425	0.393569	0.392165	0.147034	2	0.000371901	12	1.072	5.76615e-05
2	1	0	1	1	33.0785	0.321554	0.320058	0.117249	2	0.000376633	12	1.108	3.75264e-05
2	1	0	1	1	33.1145	0.249638	0.248083	0.104888	2	0.000380702	12	1.144	2.6021e-05
2	1	0	1	1	33.1505	0.177623	0.176096	0.0729102	2	0.000384061	12	1.18	1.28392e-05
2	1	0	1	1	33.1865	0.105607	0.104054	0.0610418	2	0.000386582	12	1.216	6.35167e-06
2	1	0	1	1	33.2225	0.0335918	0.0321628	0.0214844	2	0.000387994	12	1.252	6.90997e-07
2	0	0	1	1	33.2585	-0.0384237	-0.0400897	-0.0246178	2	0.00038776	12	0.018	9.86918e-07
2	0	0	1	1	33.2945	-0.110439	-0.111912	-0.107774	2	0.000385212	12	0.054	1.20613e-05
2	0	0	1	1	33.3305	-0.182355	-0.183928	-0.166922	2	0.000380268	12	0.09	3.07016e-05
2	0	0	1	1	33.3665	-0.25437	-0.255763	-0.192229	2	0.000373859	12	0.126	4.91651e-05
2	0	0	1	1	33.4025	-0.326386	-0.328036	-0.180479	2	0.000367191	12	0.162	5.92038e-05
2	0	0	1	1	33.4385	-0.398402	-0.399963	-0.147067	2	0.000361268	12	0.198	5.88215e-05
2	0	0	1	1	33.4745	-0.470417	-0.472094	-0.130023	2	0.000356186	12	0.234	6.13828e-05
2	0	0	1	1	33.5105	-0.542433	-0.543864	-0.126993	2	0.00035159	12	0.27	6.90671e-05
2	0	0	1	1	33.5465	-0.614348	-0.615881	-0.136292	2	0.000346926	12	0.306	8.39397e-05
2	0	0	1	1	33.5825	-0.686364	-0.68787	-0.146141	2	0.000341907	12	0.342	0.000100526
2	0	0	1	1	33.6185	-0.758379	-0.760058	-0.16503	2	0.000336371	12	0.378	0.000125433
2	0	0	1	1	33.6545	-0.830395	-0.831932	-0.173052	2	0.000330275	12	0.414	0.000143967
2	0	0	1	1	33.6905	-0.90241	-0.903979	-0.197194	2	0.000323531	12	0.45	0.000178259
2	0	0	1	1	33.7265	-0.974426	-0.975862	-0.20862	2	0.000316098	12	0.486	0.000203584
2	0	0	1	0	33.7569	-0.965224	-0.966832	-0.121723	2	0.000310719	12	0.5164	0.000117686
2	0	0	1	0	33.7929	-0.893208	-0.894721	-0.0789473	2	0.000307015	12	0.5524	7.06358e-05
2	0	0	1	0	33.8289	-0.821193	-0.822766	-0.076297	2	0.00030417	12	0.5884	6.27745e-05
2	0	0	1	0	33.8649	-0.749177	-0.750752	-0.0511855	2	0.00030198	12	0.6244	3.84276e-05
2	0	0	1	0	33.9009	-0.677162	-0.67876	-0.0456424	2	0.000300391	12	0.6604	3.09802e-05
2	0	0	1	0	33.9369	-0.605246	-0.60683	-0.0120183	2	0.000299422	12	0.6964	7.29309e-06
2	1	0	1	0	33.9729	-0.533231	-0.534767	0.000691121	2	0.000299135	12	0.002	-3.69588e-07
2	1	0	1	0	34.0089	-0.461215	-0.462758	0.0381207	2	0.000299621	12	0.038	-1.76407e-05
2	1	0	1	0	34.0449	-0.3892	-0.390725	0.0496463	2	0.000301086	12	0.074	-1.9398e-05
2	1	0	1	0	34.0789	-0.321185	-0.3228	0.0853416	3	0.000303604	12	0.108	-2.75483e-05
2	1	0	1	0	34.1149	-0.249169	-0.250773	0.133145	3	0.000307643	12	0.144	-3.33891e-05
2	1	0	1	0	34.1509	-0.177154	-0.178752	0.158853	3	0.000313186	12	0.18	-2.83954e-05
2	1	0	1	0	34.1869	-0.105238	-0.106853	0.215075	3	0.000320133	12	0.216	-2.29815e-05
2	1	0	1	0	34.2229	-0.0332226	-0.0347833	0.233096	3	0.000328174	12	0.252	-8.10787e-06
2	1	0	1	0	34.2589	0.0387929	0.0372898	0.243234	3	0.000336586	12	0.288	9.07015e-06
2	1	0	1	0	34.2949	0.110808	0.10933	0.201771	3	0.000344447	12	0.324	2.20597e-05
2	1	0	1	0	34.3309	0.182824	0.181231	0.196053	3	0.000351651	12	0.36	3.5531e-05
2	1	0	1	0	34.3669	0.25484	0.253326	0.186402	3	0.00035867	12	0.396	4.72204e-05
2	1	0	1	0	34.4029	0.326755	0.325235	0.209368	3	0.000365895	12	0.432	6.80938e-05
2	1	0	1	0	34.4389	0.398771	0.397312	0.218971	3	0.000373513	12	0.468	8.69997e-05
2	1	0	1	0	34.4749	0.470786	0.469156	0.238951	3	0.000381592	12	0.504	0.000112105
2	1	0	1	0	34.5109	0.542802	0.541239	0.238436	3	0.000390133	12	0.54	0.000129051
2	1	0	1	0	34.5469	0.614817	0.613272	0.25564	3	0.000399117	12	0.576	0.000156777
2	1	0	1	0	34.5829	0.686833	0.685412	0.265108	3	0.000408584	12	0.612	0.000181708
2	1	0	1	0	34.6189	0.758848	0.757345	0.2863	3	0.000418529	12	0.648	0.000216828
2	1	0	1	0	34.6549	0.830764	0.829305	0.297811	3	0.000428955	12	0.684	0.000246976
2	1	0	1	0	34.6909	0.902779	0.901217	0.312312	3	0.000439865	12	0.72	0.000281461
2	1	0	1	0	34.7269	0.974795	0.973455	0.320605	3	0.000451324	12	0.756	0.000312094
2	1	0	1	0	34.7569	0.965593	0.964154	0.287424	3	0.000460587	12	0.786	0.000277121
2	1	0	1	0	34.7929	0.893577	0.89225	0.265711	3	0.000470475	12	0.822	0.000237081
2	1	0	1	0	34.8289	0.821562	0.82007	0.241263	3	0.000479596	12	0.858	0.000197853
2	1	0	1	0	34.8649	0.749646	0.748157	0.22677	3	0.000488064	12	0.894	0.00016966
2	1	0	1	0	34.9009	0.677631	0.676106	0.204185	3	0.00049587	12	0.93	0.00013805
2	1	0	1	0	34.9369	0.605615	0.604148	0.19331	3	0.000503033	12	0.966	0.000116788
2	1	0	1	0	34.9729	0.5336	0.532036	0.17094	3	0.000509564	12	1.002	9.09459e-05
2	1	0	1	0	35.0089	0.461584	0.460141	0.161229	3	0.000515461	12	1.038	7.41882e-05
2	1	0	1	0	35.0449	0.389569	0.388087	0.132006	3	0.000520723	12	1.074	5.12298e-05
2	1	0	1	0	35.0809	0.317636	0.316154	0.121905	3	0.000525344	12	1.11	3.85406e-05
2	1	0	1	0	35.1169	0.245638	0.244089	0.0923873	3	0.000529321	12	1.146	2.25507e-05
2	1	0	1	0	35.1529	0.173622	0.172058	0.0851898	3	0.000532596	12	1.182	1.46576e-05
2	1	0	1	0	35.1889	0.101606	0.100166	0.0545639	3	0.000535031	12	1.218	5.46543e-06
2	1	0	1	0	35.2249	0.029591	0.0280512	0.0277825	3	0.000536329	12	1.254	7.79332e-07
2	0	0	1	0	35.2609	-0.0424246	-0.0438925	-0.0444851	3	0.000535942	12	0.02	1.95256e-06
2	0	0	1	0	35.2969	-0.11444	-0.115994	-0.115817	3	0.000533173	12	0.056	1.34341e-05
2	0	0	1	0	35.3329	-0.186356	-0.187759	-0.176073	3	0.000528017	12	0.092	3.30592e-05
2	0	0	1	0	35.3689	-0.258371	-0.260005	-0.193229	3	0.000521421	12	0.128	5.02405e-05
2	0	0	1	0	35.4049	-0.330387	-0.331949	-0.176549	3	0.000514657	12	0.164	5.8605e-05
2	0	0	1	0	35.4409	-0.402402	-0.404093	-0.150212	3	0.000508638	12	0.2	6.06997e-05
2	0	0	1	0	35.4769	-0.474418	-0.475849	-0.132466	3	0.000503522	12	0.236	6.30337e-05
2	0	0	1	0	35.5129	-0.546434	-0.547998	-0.130492	3	0.000498876	12	0.272	7.15094e-05
2	0	0	1	0	35.5489	-0.618349	-0.619845	-0.135135	3	0.000494185	12	0.308	8.37626e-05
2	0	0	1	0	35.5849	-0.690365	-0.69202	-0.149453	3	0.000489095	12	0.344	0.000103424
2	0	0	1	0	35.6209	-0.76238	-0.763907	-0.158682	3	0.000483521	12	0.38	0.000121219
2	0	0	1	0	35.6569	-0.834396	-0.836016	-0.180648	3	0.000477347	12	0.416	0.000151025
2	0	0	1	0	35.6929	-0.906411	-0.907834	-0.191872	3	0.000470542	12	0.452	0.000174188
2	0	0	1	0	35.7289	-0.978427	-0.980019	-0.225164	3	0.000463003	12	0.488	0.000220665
2	0	0	1	1	35.7593	-0.961223	-0.962696	-0.110014	3	0.00045782	12	0.5184	0.00010591
2	0	0	1	1	35.7953	-0.889208	-0.890844	-0.0955922	3	0.000454119	12	0.5544	8.51577e-05
2	0	0	1	1	35.8313	-0.817192	-0.81872	-0.0682843	3	0.000451273	12	0.5904	5.59057e-05
2	0	0	1	1	35.8673	-0.745176	-0.746705	-0.0621953	3	0.00044908	12	0.6264	4.64415e-05
2	0	0	1	1	35.9033	-0.673161	-0.674712	-0.0290828	3	0.000447492	12	0.6624	1.96225e-05
2	0	0	1	1	35.9393	-0.601245	-0.602838	-0.0194677	3	0.000446531	12	0.6984	1.17359e-05
2	1	0	1	1	35.9753	-0.52923	-0.530741	0.0128631	3	0.000446236	12	0.004	-6.827e-06
2	1	0	1	1	36.0113	-0.457214	-0.458765	0.0185488	3	0.00044671	12	0.03	-8.50954e-06
2	1	0	1	1	36.0473	-0.385199	-0.386816	0.0566146	3	0.00044817	12	0.066	-2.18994e-05
2	1	0	1	1	36.0813	-0.317184	-0.318753	0.09388	4	0.000450726	12	0.1	-2.99246e-05
2	1	0	1	1	36.1173	-0.245168	-0.246772	0.12002	4	0.000454828	12	0.136	-2.96175e-05
2	1	0	1	1	36.1533	-0.173153	-0.174795	0.182517	4	0.000460457	12	0.172	-3.1903e-05
2	1	0	1	1	36.1893	-0.101237	-0.102818	0.212742	4	0.000467504	12	0.208	-2.18738e-05
2	1	0	1	1	36.2253	-0.0292217	-0.0308033	0.24919	4	0.000475598	12	0.244	-7.67587e-06
2	1	0	1	1	36.2613	0.0427938	0.041325	0.220683	4	0.000483987	12	0.28	9.11972e-06
2	1	0	1	1	36.2973	0.114809	0.113264	0.205751	4	0.000491756	12	0.316	2.33043e-05
2	1	0	1	1	36.3333	0.186825	0.185291	0.183412	4	0.000498896	12	0.352	3.39845e-05
2	1	0	1	1	36.3693	0.25884	0.25727	0.199868	4	0.000505884	12	0.388	5.14198e-05
2	1	0	1	1	36.4053	0.330756	0.329278	0.205099	4	0.000513075	12	0.424	6.75347e-05
2	1	0	1	1	36.4413	0.402771	0.401194	0.226002	4	0.000520666	12	0.46	9.06707e-05
2	1	0	1	1	36.4773	0.474787	0.473259	0.225068	4	0.000528708	12	0.496	0.000106515
2	1	0	1	1	36.5133	0.546802	0.545267	0.241738	4	0.000537205	12	0.532	0.000131812
2	1	0	1	1	36.5493	0.618818	0.617427	0.249538	4	0.00054615	12	0.568	0.000154072
2	1	0	1	1	36.5853	0.690834	0.689353	0.271597	4	0.000555582	12	0.604	0.000187226
2	1	0	1	1	36.6213	0.762849	0.761318	0.283196	4	0.0005655	12	0.64	0.000215603
2	1	0	1	1	36.6573	0.834764	0.833244	0.297769	4	0.000575879	12	0.676	0.000248114
2	1	0	1	1	36.6933	0.90678	0.905367	0.30468	4	0.000586767	12	0.712	0.000275847
2	1	0	1	1	36.7293	0.978796	0.977358	0.323766	4	0.000598172	12	0.748	0.000316435
2	1	0	1	1	36.7593	0.961592	0.96028	0.285235	4	0.000607314	12	0.778	0.000273905
2	1	0	1	1	36.7953	0.889576	0.888104	0.258772	4	0.000617082	12	0.814	0.000229817
2	1	0	1	1	36.8313	0.817561	0.816156	0.241339	4	0.000626105	12	0.85	0.00019697
2	1	0	1	1	36.8673	0.745645	0.744158	0.220383	4	0.000634466	12	0.886	0.000164
2	1	0	1	1	36.9033	0.67363	0.672158	0.2089	4	0.000642201	12	0.922	0.000140414
2	1	0	1	1	36.9393	0.601614	0.600105	0.186282	4	0.000649283	12	0.958	0.000111789
2	1	0	1	1	36.9753	0.529599	0.528111	0.175439	4	0.000655717	12	0.994	9.26514e-05
2	1	0	1	1	37.0113	0.457583	0.456025	0.147999	4	0.000661522	12	1.03	6.74914e-05
2	1	0	1	1	37.0473	0.385568	0.384084	0.137059	4	0.000666707	12	1.066	5.26421e-05
2	1	0	1	1	37.0833	0.313652	0.312095	0.109533	4	0.000671253	12	1.102	3.41848e-05
2	1	0	1	1	37.1193	0.241637	0.240155	0.103817	4	0.00067515	12	1.138	2.49321e-05
2	1	0	1	1	37.1553	0.169621	0.16823	0.0778851	4	0.000678351	12	1.174	1.31026e-05
2	1	0	1	1	37.1913	0.0976056	0.0960509	0.0618955	4	0.000680709	12	1.21	5.94512e-06
2	1	0	1	1	37.2273	0.0255901	0.024172	0.00793957	4	0.0006819	12	1.246	1.91915e-07
2	0	0	1	1	37.2633	-0.0464255	-0.0479712	-0.0491359	4	0.00068135	12	0.024	2.35711e-06
2	0	0	1	1	37.2993	-0.118441	-0.119813	-0.127088	4	0.000678391	12	0.06	1.52268e-05
2	0	0	1	1	37.3353	-0.190357	-0.191998	-0.174469	4	0.000673052	12	0.096	3.34977e-05
2	0	0	1	1	37.3713	-0.262372	-0.263946	-0.188752	4	0.000666367	12	0.132	4.98204e-05
2	0	0	1	1	37.4073	-0.334388	-0.336113	-0.176635	4	0.000659534	12	0.168	5.93692e-05
2	0	0	1	1	37.4433	-0.406403	-0.407849	-0.154176	4	0.000653497	12	0.204	6.28803e-05
2	0	0	1	1	37.4793	-0.478419	-0.480003	-0.137239	4	0.000648331	12	0.24	6.58752e-05
2	0	0	1	1	37.5153	-0.550434	-0.551947	-0.128632	4	0.000643681	12	0.276	7.09982e-05
2	0	0	1	1	37.5513	-0.62235	-0.623982	-0.136948	4	0.000638946	12	0.312	8.54533e-05
2	0	0	1	1	37.5873	-0.694365	-0.695875	-0.145095	4	0.000633841	12	0.348	0.000100968
2	0	0	1	1	37.6233	-0.766381	-0.767964	-0.164571	4	0.000628202	12	0.384	0.000126385
2	0	0	1	1	37.6593	-0.838396	-0.839848	-0.177536	4	0.000621981	12	0.42	0.000149103
2	0	0	1	1	37.6953	-0.910412	-0.912017	-0.205635	4	0.000615092	12	0.456	0.000187543
2	0	0	1	1	37.7313	-0.982428	-0.983984	-0.221165	4	0.000607493	12	0.492	0.000217623
2	0	0	1	0	37.7617	-0.957222	-0.958855	-0.12439	4	0.00060249	12	0.5224	0.000119272
2	0	0	1	0	37.7977	-0.885207	-0.886729	-0.0874468	4	0.000598831	12	0.5584	7.75416e-05
2	0	0	1	0	37.8337	-0.813191	-0.814753	-0.0793602	4	0.000595997	12	0.5944	6.46589e-05
2	0	0	1	0	37.8697	-0.741176	-0.742704	-0.0454474	4	0.000593815	12	0.6304	3.3754e-05
2	0	0	1	0	37.9057	-0.66916	-0.670736	-0.036672	4	0.000592252	12	0.6664	2.45972e-05
2	0	0	1	0	37.9417	-0.597244	-0.598771	-0.00705761	4	0.000591299	12	0.7024	4.22589e-06
2	1	0	1	0	37.9777	-0.525229	-0.526786	-0.00552669	4	0.000591003	12	0.006	2.91138e-06
2	1	0	1	0	38.0137	-0.453213	-0.454845	0.0262961	4	0.000591474	12	0.028	-1.19607e-05
2	1	0	1	0	38.0497	-0.381198	-0.382738	0.0449446	4	0.000592957	12	0.064	-1.7202e-05
2	1	0	1	0	38.0837	-0.313183	-0.314785	0.081225	5	0.000595559	12	0.098	-2.55684e-05
2	1	0	1	0	38.1197	-0.241168	-0.24275	0.14367	5	0.000599737	12	0.134	-3.48759e-05
2	1	0	1	0	38.1557	-0.169152	-0.170739	0.179994	5	0.000605474	12	0.17	-3.07321e-05
2	1	0	1	0	38.1917	-0.0972364	-0.098854	0.230926	5	0.000612598	12	0.206	-2.2828e-05
2	1	0	1	0	38.2277	-0.0252209	-0.0267013	0.227493	5	0.000620726	12	0.242	-6.07435e-06
2	1	0	1	0	38.2637	0.0467947	0.0452456	0.225318	5	0.000629062	12	0.278	1.01946e-05
2	1	0	1	0	38.2997	0.11881	0.117327	0.191405	5	0.000636766	12	0.314	2.2457e-05
2	1	0	1	0	38.3357	0.190826	0.189281	0.197801	5	0.000643866	12	0.35	3.744e-05
2	1	0	1	0	38.3717	0.262841	0.261396	0.195163	5	0.000650822	12	0.386	5.10148e-05
2	1	0	1	0	38.4077	0.334757	0.333213	0.213385	5	0.000657992	12	0.422	7.11028e-05
2	1	0	1	0	38.4437	0.406772	0.405268	0.211542	5	0.00066556	12	0.458	8.57312e-05
2	1	0	1	0	38.4797	0.478788	0.477202	0.228447	5	0.000673576	12	0.494	0.000109015
2	1	0	1	0	38.5157	0.550803	0.549358	0.235314	5	0.000682039	12	0.53	0.000129272
2	1	0	1	0	38.5517	0.622819	0.621302	0.258018	5	0.000690974	12	0.566	0.000160307
2	1	0	1	0	38.5877	0.694834	0.693252	0.269046	5	0.00070038	12	0.602	0.000186517
2	1	0	1	0	38.6237	0.76685	0.765203	0.284512	5	0.000710276	12	0.638	0.00021771
2	1	0	1	0	38.6597	0.838765	0.83732	0.289575	5	0.000720636	12	0.674	0.000242467
2	1	0	1	0	38.6957	0.910781	0.909353	0.307489	5	0.000731479	12	0.71	0.000279616
2	1	0	1	0	38.7317	0.982797	0.981414	0.322815	5	0.000742863	12	0.746	0.000316815
2	1	0	1	0	38.7617	0.957591	0.956155	0.279488	5	0.000751867	12	0.776	0.000267233
2	1	0	1	0	38.7977	0.885576	0.884106	0.258199	5	0.000761552	12	0.812	0.000228276
2	1	0	1	0	38.8337	0.81356	0.812028	0.235462	5	0.000770481	12	0.848	0.000191202
2	1	0	1	0	38.8697	0.741644	0.740225	0.224204	5	0.000778764	12	0.884	0.000165962
2	1	0	1	0	38.9057	0.669629	0.668085	0.202624	5	0.000786418	12	0.92	0.00013537
2	1	0	1	0	38.9417	0.597613	0.596162	0.190508	5	0.00079342	12	0.956	0.000113573
2	1	0	1	0	38.9777	0.525598	0.524111	0.163067	5	0.00079978	12	0.992	8.5465e-05
2	1	0	1	0	39.0137	0.453582	0.452073	0.152308	5	0.000805506	12	1.028	6.88545e-05
2	1	0	1	0	39.0497	0.381567	0.380029	0.126245	5	0.000810611	12	1.064	4.79769e-05
2	1	0	1	0	39.0857	0.309651	0.308156	0.120406	5	0.000815089	12	1.1	3.71037e-05
2	1	0	1	0	39.1217	0.237636	0.236182	0.0963517	5	0.000818928	12	1.136	2.27566e-05
2	1	0	1	0	39.1577	0.16562	0.16412	0.0862257	5	0.000822064	12	1.172	1.41513e-05
2	1	0	1	0	39.1937	0.0936048	0.0921059	0.0428854	5	0.000824328	12	1.208	3.95e-06
2	1	0	1	0	39.2297	0.0215892	0.0200646	0.00682826	5	0.000825403	12	1.244	1.37007e-07
2	0	0	1	0	39.2657	-0.0504263	-0.051844	-0.0599327	5	0.000824709	12	0.026	3.10715e-06
2	0	0	1	0	39.3017	-0.122442	-0.124063	-0.123697	5	0.000821565	12	0.062	1.53461e-05
2	0	0	1	0	39.3377	-0.194357	-0.19592	-0.171563	5	0.000816097	12	0.098	3.36128e-05
2	0	0	1	0	39.3737	-0.266373	-0.268072	-0.188994	5	0.00080932	12	0.134	5.0664e-05
2	0	0	1	0	39.4097	-0.338389	-0.339803	-0.181161	5	0.00080246	12	0.17	6.15593e-05
2	0	0	1	0	39.4457	-0.410404	-0.412015	-0.158554	5	0.000796381	12	0.206	6.53265e-05
2	0	0	1	0	39.4817	-0.48242	-0.48392	-0.134763	5	0.000791225	12	0.242	6.52146e-05
2	0	0	1	0	39.5177	-0.554435	-0.556114	-0.129482	5	0.000786556	12	0.278	7.20069e-05
2	0	0	1	0	39.5537	-0.626351	-0.627845	-0.132916	5	0.000781821	12	0.314	8.34508e-05
2	0	0	1	0	39.5897	-0.698366	-0.699925	-0.150202	5	0.000776667	12	0.35	0.00010513
2	0	0	1	0	39.6257	-0.770382	-0.771774	-0.16087	5	0.000770993	12	0.386	0.000124155
2	0	0	1	0	39.6617	-0.842397	-0.843992	-0.188525	5	0.000764692	12	0.422	0.000159114
2	0	0	1	0	39.6977	-0.914413	-0.915981	-0.201285	5	0.000757751	12	0.458	0.000184373
2	0	0	1	0	39.7337	-0.986429	-0.988084	-0.233407	5	0.000750077	12	0.494	0.000230626
2	0	0	1	1	39.7641	-0.953221	-0.954794	-0.114828	5	0.000745294	12	0.5244	0.000109637
2	0	0	1	1	39.8001	-0.881206	-0.88284	-0.09836	5	0.000741673	12	0.5604	8.68362e-05
2	0	0	1	1	39.8361	-0.80919	-0.810748	-0.0618828	5	0.000738862	12	0.5964	5.01714e-05
2	0	0	1	1	39.8721	-0.737175	-0.738778	-0.0529421	5	0.000736714	12	0.6324	3.91125e-05
2	0	0	1	1	39.9081	-0.665159	-0.666714	-0.0237934	5	0.000735166	12	0.6684	1.58634e-05
2	0	0	1	1	39.9441	-0.593244	-0.594787	-0.0250038	5	0.000734221	12	0.7044	1.48719e-05
2	0	0	1	1	39.9801	-0.521228	-0.522842	0.00288897	5	0.000733927	12	0.002	-1.51047e-06
2	1	0	1	1	40.0161	-0.449212	-0.450791	0.0142635	5	0.000734417	12	0.03	-6.42986e-06
2	1	0	1	1	40.052	-0.377397	-0.379044	0.0643062	5	0.000735935	12	0.0659	-2.43749e-05
2	1	0	1	1	40.0861	-0.309182	-0.310771	0.103329	6	0.000738599	12	0.1	-3.21116e-05
2	1	0	1	1	40.1221	-0.237167	-0.238724	0.140205	6	0.000742874	12	0.136	-3.34703e-05
2	1	0	1	1	40.1581	-0.165151	-0.166708	0.198269	6	0.000748698	12	0.172	-3.30532e-05
2	1	0	1	1	40.1941	-0.0932356	-0.094805	0.209898	6	0.000755887	12	0.208	-1.98994e-05
2	1	0	1	1	40.2301	-0.02122	-0.0228486	0.232783	6	0.00076402	12	0.244	-5.31876e-06
2	1	0	1	1	40.2661	0.0507955	0.0493179	0.210263	6	0.000772329	12	0.28	1.03697e-05
2	1	0	1	1	40.3021	0.122811	0.121233	0.206639	6	0.000779977	12	0.316	2.50515e-05
2	1	0	1	1	40.3381	0.194827	0.193328	0.193087	6	0.000787038	12	0.352	3.73292e-05
2	1	0	1	1	40.3741	0.266842	0.265287	0.204244	6	0.000793974	12	0.388	5.41834e-05
2	1	0	1	1	40.4101	0.338758	0.337232	0.198911	6	0.000801127	12	0.424	6.7079e-05
2	1	0	1	1	40.4461	0.410773	0.409216	0.215093	6	0.000808665	12	0.46	8.80195e-05
2	1	0	1	1	40.4821	0.482789	0.481415	0.223151	6	0.000816664	12	0.496	0.000107428
2	1	0	1	1	40.5181	0.554804	0.553342	0.244911	6	0.000825122	12	0.532	0.00013552
2	1	0	1	1	40.5541	0.62682	0.625294	0.255257	6	0.000834047	12	0.568	0.000159611
2	1	0	1	1	40.5901	0.698835	0.697212	0.270778	6	0.000843439	12	0.604	0.00018879
2	1	0	1	1	40.6261	0.770851	0.769339	0.276294	6	0.000853301	12	0.64	0.000212564
2	1	0	1	1	40.6621	0.842766	0.841309	0.293854	6	0.000863647	12	0.676	0.000247222
2	1	0	1	1	40.6981	0.914782	0.913357	0.307869	6	0.00087449	12	0.712	0.000281195
2	1	0	1	1	40.7341	0.986797	0.985238	0.323893	6	0.000885822	12	0.748	0.000319112
2	1	0	1	1	40.7641	0.95359	0.952195	0.278081	6	0.00089472	12	0.778	0.000264787
2	1	0	1	1	40.8001	0.881575	0.880089	0.252421	6	0.000904304	12	0.814	0.000222153
2	1	0	1	1	40.8361	0.809559	0.808125	0.240446	6	0.000913172	12	0.85	0.00019431
2	1	0	1	1	40.8721	0.737644	0.736078	0.217674	6	0.000921377	12	0.886	0.000160225
2	1	0	1	1	40.9081	0.665628	0.664149	0.206176	6	0.000928946	12	0.922	0.000136931
2	1	0	1	1	40.9441	0.593613	0.592096	0.179314	6	0.000935878	12	0.958	0.000106171
2	1	0	1	1	40.9801	0.521597	0.520135	0.167445	6	0.000942169	12	0.994	8.70938e-05
2	1	0	1	1	41.0161	0.449582	0.448018	0.141174	6	0.000947825	12	1.03	6.32487e-05
2	1	0	1	1	41.0521	0.377566	0.376026	0.135727	6	0.000952857	12	1.066	5.10368e-05
2	1	0	1	1	41.0881	0.30565	0.304219	0.113594	6	0.000957283	12	1.102	3.45574e-05
2	1	0	1	1	41.1241	0.233635	0.23211	0.105412	6	0.000961067	12	1.138	2.44672e-05
2	1	0	1	1	41.1601	0.161619	0.160099	0.0686313	6	0.000964121	12	1.174	1.09878e-05
2	1	0	1	1	41.1961	0.0896039	0.0881036	0.0442501	6	0.000966298	12	1.21	3.89859e-06
2	1	0	1	1	41.2321	0.0175884	0.0162491	-0.00248961	6	0.00096727	12	1.246	-4.04539e-08
2	0	0	1	1	41.2681	-0.0544272	-0.0560585	-0.0551856	6	0.000966427	12	0.024	3.09363e-06
2	0	0	1	1	41.3041	-0.126443	-0.128008	-0.123009	6	0.000963136	12	0.06	1.57461e-05
2	0	0	1	1	41.3401	-0.198358	-0.200083	-0.175153	6	0.000957528	12	0.096	3.50451e-05
2	0	0	1	1	41.3761	-0.270374	-0.271789	-0.191898	6	0.000950687	12	0.132	5.21557e-05
2	0	0	1	1	41.4121	-0.342389	-0.343968	-0.187132	6	0.000943769	12	0.168	6.43673e-05
2	0	0	1	1	41.4481	-0.414405	-0.415861	-0.155372	6	0.000937705	12	0.204	6.46133e-05
2	0	0	1	1	41.4841	-0.486421	-0.488106	-0.136716	6	0.000932548	12	0.24	6.67318e-05
2	0	0	1	1	41.5201	-0.558436	-0.559945	-0.124627	6	0.00092791	12	0.276	6.97842e-05
2	0	0	1	1	41.5561	-0.630352	-0.631905	-0.137809	6	0.00092314	12	0.312	8.70825e-05
2	0	0	1	1	41.5921	-0.702367	-0.70376	-0.146512	6	0.000917958	12	0.348	0.000103109
2	0	0	1	1	41.6281	-0.774383	-0.775973	-0.171932	6	0.000912213	12	0.384	0.000133415
2	0	0	1	1	41.6641	-0.846398	-0.847928	-0.183751	6	0.000905875	12	0.42	0.000155808
2	0	0	1	1	41.7001	-0.918414	-0.920061	-0.213527	6	0.00089887	12	0.456	0.000196458
2	0	0	1	1	41.7361	-0.990429	-0.991945	-0.219056	6	0.000891158	12	0.492	0.000217292
2	0	0	1	0	41.7665	-0.94922	-0.950845	-0.124692	6	0.000886571	12	0.5224	0.000118563
2	0	0	1	0	41.8025	-0.877205	-0.878784	-0.080474	6	0.000883001	12	0.5584	7.07192e-05
2	0	0	1	0	41.8385	-0.805189	-0.806705	-0.0692194	6	0.000880236	12	0.5944	5.58397e-05
2	0	0	1	0	41.8745	-0.733174	-0.734694	-0.0394975	6	0.000878109	12	0.6304	2.90185e-05
2	0	0	1	0	41.9105	-0.661158	-0.662672	-0.0415902	6	0.000876572	12	0.6664	2.75607e-05
2	0	0	1	0	41.9465	-0.589243	-0.590838	-0.0164285	6	0.000875635	12	0.7024	9.70661e-06
2	0	0	1	0	41.9825	-0.517227	-0.518804	-0.00925829	6	0.000875361	12	0.000000000000000E+000	4.80324e-06
2	1	0	1	0	42.0185	-0.445212	-0.44685	0.0326806	6	0.000875883	12	0.032	-1.46033e-05
2	1	0	1	0	42.0534	-0.375396	-0.377131	0.0632311	7	0.000877397	12	0.0669	-2.38464e-05
2	1	0	1	0	42.0885	-0.305181	-0.30672	0.0994765	7	0.000880188	12	0.102	-3.05114e-05
2	1	0	1	0	42.1245	-0.233166	-0.234749	0.159261	7	0.000884549	12	0.138	-3.73863e-05
2	1	0	1	0	42.1605	-0.16115	-0.162689	0.178081	7	0.000890453	12	0.174	-2.89719e-05
2	1	0	1	0	42.1965	-0.0892347	-0.0908547	0.215325	7	0.000897676	12	0.21	-1.95633e-05
2	1	0	1	0	42.2325	-0.0172191	-0.0187784	0.21915	7	0.000905837	12	0.246	-4.11529e-06
2	1	0	1	0	42.2685	0.0547964	0.0532608	0.225981	7	0.000914121	12	0.282	1.20359e-05
2	1	0	1	0	42.3045	0.126812	0.125382	0.202819	7	0.000921731	12	0.318	2.54297e-05
2	1	0	1	0	42.3405	0.198827	0.197257	0.201526	7	0.000928747	12	0.354	3.97525e-05
2	1	0	1	0	42.3765	0.270843	0.269354	0.189018	7	0.000935651	12	0.39	5.09127e-05
2	1	0	1	0	42.4125	0.342758	0.341244	0.202446	7	0.000942788	12	0.426	6.90835e-05
2	1	0	1	0	42.4485	0.414774	0.413436	0.210527	7	0.000950327	12	0.462	8.70394e-05
2	1	0	1	0	42.4845	0.48679	0.485295	0.231735	7	0.000958313	12	0.498	0.00011246
2	1	0	1	0	42.5205	0.558805	0.55729	0.242485	7	0.000966763	12	0.534	0.000135134
2	1	0	1	0	42.5565	0.630821	0.629198	0.256076	7	0.000975678	12	0.57	0.000161123
2	1	0	1	0	42.5925	0.702836	0.70138	0.263159	7	0.000985073	12	0.606	0.000184574
2	1	0	1	0	42.6285	0.774852	0.77336	0.279081	7	0.000994909	12	0.642	0.00021583
2	1	0	1	0	42.6645	0.846767	0.845387	0.293969	7	0.00100523	12	0.678	0.000248517
2	1	0	1	0	42.7005	0.918783	0.917234	0.30851	7	0.00101605	12	0.714	0.000282976
2	1	0	1	0	42.7365	0.990798	0.989366	0.323476	7	0.00102742	12	0.75	0.000320036
2	1	0	1	0	42.7665	0.949589	0.948149	0.271653	7	0.00103617	12	0.78	0.000257567
2	1	0	1	0	42.8025	0.877574	0.876148	0.257008	7	0.00104566	12	0.816	0.000225177
2	1	0	1	0	42.8385	0.805558	0.804044	0.233303	7	0.00105445	12	0.852	0.000187586
2	1	0	1	0	42.8745	0.733643	0.732165	0.222754	7	0.0010626	12	0.888	0.000163092
2	1	0	1	0	42.9105	0.661627	0.660127	0.195	7	0.0010701	12	0.924	0.000128725
2	1	0	1	0	42.9465	0.589612	0.588081	0.182894	7	0.00107696	12	0.96	0.000107557
2	1	0	1	0	42.9825	0.517596	0.516058	0.15632	7	0.00108317	12	0.996	8.06704e-05
2	1	0	1	0	43.0185	0.445581	0.444074	0.151312	7	0.00108877	12	1.032	6.71937e-05
2	1	0	1	0	43.0545	0.373565	0.372125	0.129646	7	0.00109376	12	1.068	4.82446e-05
2	1	0	1	0	43.0905	0.30165	0.300078	0.12108	7	0.00109812	12	1.104	3.63334e-05
2	1	0	1	0	43.1265	0.229634	0.228187	0.0888821	7	0.00110183	12	1.14	2.02818e-05
2	1	0	1	0	43.1625	0.157619	0.156095	0.0704597	7	0.00110481	12	1.176	1.09984e-05
2	1	0	1	0	43.1985	0.085603	0.0842372	0.0370586	7	0.00110692	12	1.212	3.12171e-06
2	1	0	1	0	43.2345	0.0135875	0.0120696	0.00353113	7	0.00110778	12	0.000000000000000E+000	4.26194e-08
2	0	0	1	0	43.2705	-0.058428	-0.0600088	-0.055509	7	0.00110681	12	0.028	3.33103e-06
2	0	0	1	0	43.3065	-0.130444	-0.13213	-0.128138	7	0.00110336	12	0.064	1.69308e-05
2	0	0	1	0	43.3425	-0.202359	-0.2038	-0.177169	7	0.00109764	12	0.1	3.61069e-05
2	0	0	1	0	43.3785	-0.274375	-0.275948	-0.202028	7	0.00109069	12	0.136	5.57493e-05
2	0	0	1	0	43.4145	-0.34639	-0.347926	-0.183154	7	0.00108377	12	0.172	6.37241e-05
2	0	0	1	0	43.4505	-0.418406	-0.420124	-0.160535	7	0.0010777	12	0.208	6.74446e-05
2	0	0	1	0	43.4865	-0.490421	-0.491936	-0.127708	7	0.0010726	12	0.244	6.2824e-05
2	0	0	1	0	43.5225	-0.562437	-0.563993	-0.129343	7	0.00106796	12	0.28	7.29482e-05
2	0	0	1	0	43.5585	-0.634352	-0.635803	-0.132621	7	0.00106317	12	0.316	8.43209e-05
2	0	0	1	0	43.5945	-0.706368	-0.707956	-0.158111	7	0.00105793	12	0.352	0.000111936
2	0	0	1	0	43.6305	-0.778384	-0.779944	-0.167611	7	0.00105215	12	0.388	0.000130727
2	0	0	1	0	43.6665	-0.850399	-0.852035	-0.19614	7	0.00104576	12	0.424	0.000167118
2	0	0	1	0	43.7025	-0.922415	-0.923954	-0.198835	7	0.00103872	12	0.46	0.000183714
2	0	0	1	0	43.7385	-0.99443	-0.995958	-0.227729	7	0.00103096	12	0.496	0.000226808
2	0	0	1	1	43.7689	-0.94522	-0.946798	-0.105155	7	0.00102659	12	0.5264	9.95601e-05
2	0	0	1	1	43.8049	-0.873204	-0.87473	-0.0863076	7	0.00102308	12	0.5624	7.54958e-05
2	0	0	1	1	43.8409	-0.801189	-0.802703	-0.0552168	7	0.00102034	12	0.5984	4.43227e-05
2	0	0	1	1	43.8769	-0.729173	-0.730704	-0.0578778	7	0.00101823	12	0.6344	4.22915e-05
2	0	0	1	1	43.9129	-0.657157	-0.658782	-0.0339958	7	0.0010167	12	0.6704	2.23958e-05
2	0	0	1	1	43.9489	-0.585242	-0.586749	-0.0277914	7	0.00101579	12	0.7064	1.63066e-05
2	1	0	1	1	43.9849	-0.513226	-0.51482	0.00842216	7	0.00101555	12	0.000000000000000E+000	-4.3359e-06
2	1	0	1	1	44.0209	-0.441211	-0.44276	0.0319001	7	0.00101611	12	0.036	-1.41241e-05
2	1	0	1	1	44.0549	-0.373196	-0.374743	0.0609519	8	0.00101762	12	0.07	-2.28413e-05
2	1	0	1	1	44.0909	-0.30118	-0.302778	0.116731	8	0.00102054	12	0.106	-3.53435e-05
2	1	0	1	1	44.1269	-0.229165	-0.230694	0.139991	8	0.00102498	12	0.142	-3.22952e-05
2	1	0	1	1	44.1629	-0.157149	-0.158793	0.183539	8	0.00103094	12	0.178	-2.91447e-05
2	1	0	1	1	44.1989	-0.0852338	-0.0867283	0.203881	8	0.00103822	12	0.214	-1.76822e-05
2	1	0	1	1	44.2349	-0.0132183	-0.0148589	0.235144	8	0.00104641	12	0.25	-3.49398e-06
2	1	0	1	1	44.2709	0.0587972	0.0572811	0.224539	8	0.00105469	12	0.286	1.28618e-05
2	1	0	1	1	44.3069	0.130813	0.129162	0.20787	8	0.00106224	12	0.322	2.68489e-05
2	1	0	1	1	44.3429	0.202828	0.201297	0.186063	8	0.00106922	12	0.358	3.74538e-05
2	1	0	1	1	44.3789	0.274844	0.273338	0.191973	8	0.00107609	12	0.394	5.24736e-05
2	1	0	1	1	44.4149	0.346759	0.345359	0.199989	8	0.00108322	12	0.43	6.9068e-05
2	1	0	1	1	44.4509	0.418775	0.417226	0.219288	8	0.00109075	12	0.466	9.14926e-05
2	1	0	1	1	44.4869	0.49079	0.489212	0.229245	8	0.00109875	12	0.502	0.000112149
2	1	0	1	1	44.5229	0.562806	0.561219	0.24173	8	0.00110719	12	0.538	0.000135663
2	1	0	1	1	44.5589	0.634821	0.63336	0.250955	8	0.0011161	12	0.574	0.000158945
2	1	0	1	1	44.5949	0.706837	0.705326	0.265852	8	0.00112546	12	0.61	0.000187512
2	1	0	1	1	44.6309	0.778852	0.777379	0.28053	8	0.00113532	12	0.646	0.000218078
2	1	0	1	1	44.6669	0.850768	0.84918	0.291747	8	0.00114562	12	0.682	0.000247746
2	1	0	1	1	44.7029	0.922783	0.921317	0.309019	8	0.00115644	12	0.718	0.000284704
2	1	0	1	1	44.7389	0.994799	0.993342	0.322667	8	0.00116778	12	0.754	0.000320519
2	1	0	1	1	44.7689	0.945588	0.944164	0.27716	8	0.00117641	12	0.784	0.000261684
2	1	0	1	1	44.8049	0.873573	0.87214	0.249553	8	0.00118585	12	0.82	0.000217645
2	1	0	1	1	44.8409	0.801557	0.80009	0.239126	8	0.00119457	12	0.856	0.000191322
2	1	0	1	1	44.8769	0.729642	0.728154	0.211056	8	0.00120262	12	0.892	0.000153681
2	1	0	1	1	44.9129	0.657626	0.656096	0.198869	8	0.00121006	12	0.928	0.000130477
2	1	0	1	1	44.9489	0.585611	0.584133	0.171499	8	0.00121686	12	0.964	0.000100178
2	1	0	1	1	44.9849	0.513595	0.512111	0.166247	8	0.00122301	12	1	8.51368e-05
2	1	0	1	1	45.0209	0.44158	0.440148	0.145882	8	0.00122855	12	1.036	6.42095e-05
2	1	0	1	1	45.0569	0.369564	0.367989	0.136697	8	0.00123348	12	1.072	5.03032e-05
2	1	0	1	1	45.0929	0.297649	0.296159	0.1057	8	0.00123778	12	1.108	3.1304e-05
2	1	0	1	1	45.1289	0.225633	0.224122	0.0904799	8	0.00124142	12	1.144	2.02786e-05
2	1	0	1	1	45.1649	0.153618	0.152237	0.0661762	8	0.00124435	12	1.18	1.00745e-05
2	1	0	1	1	45.2009	0.0816022	0.0800513	0.0432484	8	0.00124637	12	1.216	3.46209e-06
2	1	0	1	1	45.2369	0.00958664	0.00810339	0.00293567	8	0.00124716	12	0.000000000000000E+000	2.37889e-08
2	0	0	1	1	45.2729	-0.0624289	-0.0640419	-0.0623361	8	0.00124605	12	0.03	3.99212e-06
2	0	0	1	1	45.3089	-0.134444	-0.135869	-0.128636	8	0.00124244	12	0.066	1.74776e-05
2	0	0	1	1	45.3449	-0.20636	-0.207932	-0.189259	8	0.00123657	12	0.102	3.9353e-05
2	0	0	1	1	45.3809	-0.278376	-0.279935	-0.198485	8	0.00122956	12	0.138	5.55628e-05
2	0	0	1	1	45.4169	-0.350391	-0.352094	-0.193379	8	0.00122262	12	0.174	6.80877e-05
2	0	0	1	1	45.4529	-0.422407	-0.423932	-0.146796	8	0.00121662	12	0.21	6.22317e-05
2	0	0	1	1	45.4889	-0.494422	-0.496004	-0.132459	8	0.00121154	12	0.246	6.57002e-05
2	0	0	1	1	45.5249	-0.566438	-0.567932	-0.120384	8	0.0012069	12	0.282	6.83702e-05
2	0	0	1	1	45.5609	-0.638353	-0.639898	-0.145497	8	0.00120208	12	0.318	9.31033e-05
2	0	0	1	1	45.5969	-0.710369	-0.711907	-0.152494	8	0.0011968	12	0.354	0.000108562
2	0	0	1	1	45.6329	-0.782384	-0.783947	-0.179931	8	0.00119097	12	0.39	0.000141057
2	0	0	1	1	45.6689	-0.8544	-0.855956	-0.181118	8	0.00118454	12	0.426	0.000155029
2	0	0	1	1	45.7049	-0.926416	-0.927955	-0.206937	8	0.00117748	12	0.462	0.000192029
2	0	0	1	1	45.7407	-0.998031	-0.999602	-0.212623	8	0.00116972	12	0.4978	0.000212538
2	0	0	1	0	45.7713	-0.941219	-0.942758	-0.109864	8	0.00116551	12	0.5284	0.000103575
2	0	0	1	0	45.8073	-0.869203	-0.870792	-0.0720707	8	0.00116206	12	0.5644	6.27586e-05
2	0	0	1	0	45.8433	-0.797188	-0.798719	-0.0728827	8	0.00115935	12	0.6004	5.82128e-05
2	0	0	1	0	45.8793	-0.725172	-0.726779	-0.0510525	8	0.00115725	12	0.6364	3.71039e-05
2	0	0	1	0	45.9153	-0.653157	-0.654591	-0.0429344	8	0.00115575	12	0.6724	2.81044e-05
2	0	0	1	0	45.9513	-0.581241	-0.58285	-0.0113896	8	0.00115487	12	0.7084	6.63844e-06
2	1	0	1	0	45.9873	-0.509225	-0.510791	0.00748669	8	0.00115466	12	0.002	-3.82414e-06
2	1	0	1	0	46.0233	-0.43721	-0.438925	0.0353716	8	0.00115527	12	0.038	-1.55255e-05
2	1	0	1	0	46.0573	-0.369195	-0.370795	0.0765788	9	0.00115683	12	0.072	-2.8395e-05
2	1	0	1	0	46.0933	-0.29718	-0.298699	0.0990955	9	0.00115982	12	0.108	-2.95998e-05
2	1	0	1	0	46.1293	-0.225164	-0.226779	0.143502	9	0.00116432	12	0.144	-3.25433e-05
2	1	0	1	0	46.1653	-0.153149	-0.154608	0.176723	9	0.00117036	12	0.18	-2.73229e-05
2	1	0	1	0	46.2013	-0.081233	-0.0829159	0.21829	9	0.0011777	12	0.216	-1.80997e-05
2	1	0	1	0	46.2373	-0.00921742	-0.0107897	0.238069	9	0.00118594	12	0.252	-2.5687e-06
2	1	0	1	0	46.2733	0.0627981	0.0611179	0.226962	9	0.00119418	12	0.288	1.38714e-05
2	1	0	1	0	46.3093	0.134814	0.133368	0.194819	9	0.00120168	12	0.324	2.59827e-05
2	1	0	1	0	46.3453	0.206829	0.205318	0.187631	9	0.00120861	12	0.36	3.85242e-05
2	1	0	1	0	46.3813	0.278845	0.277326	0.1918	9	0.00121546	12	0.396	5.31911e-05
2	1	0	1	0	46.4173	0.35076	0.349173	0.20592	9	0.00122258	12	0.432	7.19018e-05
2	1	0	1	0	46.4533	0.422776	0.421311	0.217095	9	0.00123014	12	0.468	9.14644e-05
2	1	0	1	0	46.4893	0.494791	0.493245	0.228427	9	0.00123813	12	0.504	0.00011267
2	1	0	1	0	46.5253	0.566807	0.565402	0.240445	9	0.00124657	12	0.54	0.000135948
2	1	0	1	0	46.5613	0.638822	0.637268	0.252369	9	0.00125545	12	0.576	0.000160826
2	1	0	1	0	46.5973	0.710838	0.709295	0.266754	9	0.00126483	12	0.612	0.000189207
2	1	0	1	0	46.6333	0.78277	0.781216	0.276375	9	0.00127466	12	0.648	0.000215909
2	1	0	1	0	46.6693	0.854769	0.853331	0.295638	9	0.00128497	12	0.684	0.000252277
2	1	0	1	0	46.7053	0.926784	0.925311	0.306648	9	0.0012958	12	0.72	0.000283745
2	1	0	1	0	46.741	0.9982	0.996907	0.331044	9	0.00130705	12	0.7557	0.00033002
2	1	0	1	0	46.7713	0.941588	0.940192	0.268845	9	0.00131563	12	0.786	0.000252766
2	1	0	1	0	46.8073	0.869572	0.868207	0.257095	9	0.00132498	12	0.822	0.000223212
2	1	0	1	0	46.8433	0.797557	0.796071	0.227619	9	0.00133363	12	0.858	0.000181201
2	1	0	1	0	46.8793	0.725641	0.72412	0.213855	9	0.00134164	12	0.894	0.000154857
2	1	0	1	0	46.9153	0.653625	0.652159	0.187925	9	0.001349	12	0.93	0.000122557
2	1	0	1	0	46.9513	0.58161	0.580093	0.181725	9	0.00135573	12	0.966	0.000105417
2	1	0	1	0	46.9873	0.509594	0.508093	0.162203	9	0.00136183	12	1.002	8.24142e-05
2	1	0	1	0	47.0233	0.437579	0.435957	0.149914	9	0.00136733	12	1.038	6.53562e-05
2	1	0	1	0	47.0593	0.365563	0.364042	0.122113	9	0.00137219	12	1.074	4.44543e-05
2	1	0	1	0	47.0953	0.293648	0.292144	0.108103	9	0.00137642	12	1.11	3.15816e-05
2	1	0	1	0	47.1313	0.221632	0.220187	0.0884324	9	0.00138001	12	1.146	1.94717e-05
2	1	0	1	0	47.1673	0.149617	0.148056	0.070176	9	0.00138287	12	1.182	1.039e-05
2	1	0	1	0	47.2033	0.0776013	0.0761466	0.042549	9	0.00138484	12	1.218	3.23996e-06
2	0	0	1	0	47.2393	0.00558578	0.00404274	-0.0037626	9	0.00138552	12	0.000000000000000E+000	-1.52112e-08
2	0	0	1	0	47.2753	-0.0664298	-0.0678649	-0.0596365	9	0.00138429	12	0.032	4.04723e-06
2	0	0	1	0	47.3113	-0.138445	-0.140036	-0.144909	9	0.00138049	12	0.068	2.02924e-05
2	0	0	1	0	47.3473	-0.210361	-0.211916	-0.186971	9	0.0013745	12	0.104	3.9622e-05
2	0	0	1	0	47.3833	-0.282376	-0.284006	-0.213599	9	0.00136743	12	0.14	6.06632e-05
2	0	0	1	0	47.4193	-0.354392	-0.355926	-0.175147	9	0.00136051	12	0.176	6.23393e-05
2	0	0	1	0	47.4553	-0.426408	-0.428012	-0.151853	9	0.00135455	12	0.212	6.4995e-05
2	0	0	1	0	47.4913	-0.498423	-0.4999	-0.119598	9	0.00134952	12	0.248	5.9787e-05
2	0	0	1	0	47.5273	-0.570439	-0.572027	-0.136756	9	0.00134486	12	0.284	7.8228e-05
2	0	0	1	0	47.5633	-0.642354	-0.643881	-0.139212	9	0.00134	12	0.32	8.96362e-05
2	0	0	1	0	47.5993	-0.71437	-0.715916	-0.165484	9	0.00133469	12	0.356	0.000118473
2	0	0	1	0	47.6353	-0.786385	-0.78794	-0.164863	9	0.00132883	12	0.392	0.000129902
2	0	0	1	0	47.6713	-0.858401	-0.859895	-0.188516	9	0.00132237	12	0.428	0.000162104
2	0	0	1	0	47.7073	-0.930416	-0.932012	-0.194622	9	0.00131526	12	0.464	0.00018139
2	0	0	0	0	47.742	-0.999831	-1.0015	-0.230409	9	0.00130771	12	0.4987	0.000230754
2	0	0	1	1	47.7737	-0.937218	-0.938905	-0.0970534	9	0.0013035	12	0.5304	9.1124e-05
2	0	0	1	1	47.8097	-0.865202	-0.866798	-0.089783	9	0.00130008	12	0.5664	7.78238e-05
2	0	0	1	1	47.8457	-0.793187	-0.794733	-0.0679149	9	0.00129738	12	0.6024	5.39742e-05
2	0	0	1	1	47.8817	-0.721171	-0.72265	-0.0559909	9	0.00129532	12	0.6384	4.04618e-05
2	0	0	1	1	47.9177	-0.649156	-0.650742	-0.0289059	9	0.00129385	12	0.6744	1.88103e-05
2	0	0	1	1	47.9537	-0.57724	-0.578781	-0.0116108	9	0.001293	12	0.7104	6.72009e-06
2	1	0	1	1	47.9897	-0.505225	-0.506933	0.00884531	9	0.00129283	12	0.004	-4.48398e-06
2	1	0	1	1	48.0257	-0.433209	-0.434681	0.0300514	9	0.00129349	12	0.04	-1.30628e-05
2	1	0	1	1	48.0597	-0.365194	-0.366739	0.0596205	10	0.0012951	12	0.074	-2.18652e-05
2	1	0	1	1	48.0957	-0.293179	-0.29479	0.101909	10	0.00129814	12	0.11	-3.00419e-05
2	1	0	1	1	48.1317	-0.221163	-0.222565	0.141415	10	0.00130273	12	0.146	-3.1474e-05
2	1	0	1	1	48.1677	-0.149148	-0.150835	0.187197	10	0.00130883	12	0.182	-2.82359e-05
2	1	0	1	1	48.2037	-0.0772321	-0.0788436	0.225629	10	0.00131626	12	0.218	-1.77894e-05
2	1	0	1	1	48.2397	-0.00521655	-0.00692643	0.237515	10	0.00132452	12	0.254	-1.64513e-06
2	1	0	1	1	48.2757	0.066799	0.0653865	0.219772	10	0.00133274	12	0.29	1.43701e-05
2	1	0	1	1	48.3117	0.138814	0.137263	0.193578	10	0.00134015	12	0.326	2.65712e-05
2	1	0	1	1	48.3477	0.21083	0.209349	0.188714	10	0.00134705	12	0.362	3.95072e-05
2	1	0	1	1	48.3837	0.282846	0.281242	0.193402	10	0.0013539	12	0.398	5.43928e-05
2	1	0	1	1	48.4197	0.354761	0.353312	0.205348	10	0.00136103	12	0.434	7.2552e-05
2	1	0	1	1	48.4557	0.426777	0.425256	0.21553	10	0.00136857	12	0.47	9.16553e-05
2	1	0	1	1	48.4917	0.498792	0.497389	0.230183	10	0.00137657	12	0.506	0.000114491
2	1	0	1	1	48.5277	0.570808	0.569232	0.239315	10	0.00138501	12	0.542	0.000136226
2	1	0	1	1	48.5637	0.642823	0.641351	0.254094	10	0.0013939	12	0.578	0.000162963
2	1	0	1	1	48.5997	0.714839	0.713353	0.262524	10	0.00140325	12	0.614	0.000187272
2	1	0	1	1	48.6357	0.786754	0.785213	0.283046	10	0.00141309	12	0.65	0.000222252
2	1	0	1	1	48.6717	0.85877	0.857285	0.292554	10	0.00142342	12	0.686	0.000250802
2	1	0	1	1	48.7077	0.930785	0.929373	0.312027	10	0.00143424	12	0.722	0.000289989
2	1	0	0	1	48.7422	0.9998	0.998243	0.324723	10	0.00144508	12	0.7565	0.000324152
2	1	0	1	1	48.7737	0.937587	0.936214	0.277149	10	0.00145392	12	0.788	0.00025947
2	1	0	1	1	48.8097	0.865571	0.864152	0.244256	10	0.00146322	12	0.824	0.000211074
2	1	0	1	1	48.8457	0.793556	0.792035	0.228575	10	0.0014718	12	0.86	0.000181039
2	1	0	1	1	48.8817	0.72164	0.720247	0.205286	10	0.00147973	12	0.896	0.000147857
2	1	0	1	1	48.9177	0.649625	0.648134	0.198367	10	0.00148703	12	0.932	0.000128568
2	1	0	1	1	48.9537	0.577609	0.576105	0.178421	10	0.00149372	12	0.968	0.00010279
2	1	0	1	1	48.9897	0.505594	0.504019	0.161583	10	0.00149977	12	1.004	8.14409e-05
2	1	0	1	1	49.0257	0.433578	0.432167	0.138285	10	0.00150519	12	1.04	5.97624e-05
2	1	0	1	1	49.0617	0.361562	0.360064	0.124076	10	0.00150999	12	1.076	4.46754e-05
2	1	0	1	1	49.0977	0.289647	0.288178	0.107093	10	0.00151418	12	1.112	3.08617e-05
2	1	0	1	1	49.1337	0.217631	0.216051	0.0888811	10	0.00151771	12	1.148	1.92028e-05
2	1	0	1	1	49.1697	0.145616	0.144167	0.0697801	10	0.00152053	12	1.184	1.006e-05
2	1	0	1	1	49.2057	0.0736004	0.0721136	0.0364391	10	0.00152241	12	1.22	2.62775e-06
2	1	0	1	1	49.2417	0.00158492	0.000230378	0.00139095	10	0.00152301	12	0.000000000000000E+000	3.20445e-10
2	0	0	1	1	49.2777	-0.0704306	-0.0720465	-0.0778707	10	0.00152161	12	0.034	5.61031e-06
2	0	0	1	1	49.3137	-0.142446	-0.144018	-0.143568	10	0.00151766	12	0.07	2.06764e-05
2	0	0	1	1	49.3497	-0.214362	-0.215923	-0.205349	10	0.00151154	12	0.106	4.43397e-05
2	0	0	1	1	49.3857	-0.286377	-0.287953	-0.194425	10	0.00150443	12	0.142	5.59851e-05
2	0	0	1	1	49.4217	-0.358393	-0.359959	-0.179764	10	0.00149755	12	0.178	6.47077e-05
2	0	0	1	1	49.4577	-0.430408	-0.43196	-0.136321	10	0.00149164	12	0.214	5.88853e-05
2	0	0	1	1	49.4937	-0.502424	-0.503978	-0.138314	10	0.00148662	12	0.25	6.97074e-05
2	0	0	1	1	49.5297	-0.57444	-0.575958	-0.129947	10	0.00148195	12	0.286	7.48441e-05
2	0	0	1	1	49.5657	-0.646355	-0.647929	-0.152771	10	0.00147706	12	0.322	9.89848e-05
2	0	0	1	1	49.6017	-0.718371	-0.719905	-0.149946	10	0.00147173	12	0.358	0.000107947
2	0	0	1	1	49.6377	-0.790386	-0.791838	-0.170869	10	0.00146584	12	0.394	0.000135301
2	0	0	1	1	49.6737	-0.862402	-0.864035	-0.177878	10	0.00145934	12	0.43	0.000153693
2	0	0	1	1	49.7097	-0.934417	-0.935928	-0.214432	10	0.00145218	12	0.466	0.000200693
2	0	0	0	1	49.7426	-1.00023	-1.00146	-0.229122	10	0.00144501	12	0.4989	0.000229456
2	0	0	1	0	49.7761	-0.933217	-0.934704	-0.111767	10	0.00144064	12	0.5324	0.000104469
2	0	0	1	0	49.8121	-0.861202	-0.862839	-0.0862099	10	0.00143723	12	0.5684	7.43853e-05
2	0	0	1	0	49.8481	-0.789186	-0.790599	-0.0684962	10	0.00143458	12	0.6044	5.4153e-05
2	0	0	1	0	49.8841	-0.71717	-0.718808	-0.0458426	10	0.00143254	12	0.6404	3.2952e-05
2	0	0	1	0	49.9201	-0.645155	-0.646696	-0.028292	10	0.00143112	12	0.6764	1.82964e-05
2	0	0	1	0	49.9561	-0.573239	-0.574839	-0.0129938	10	0.0014303	12	0.7124	7.46933e-06
2	1	0	1	0	49.9921	-0.501224	-0.502686	0.00728962	10	0.00143017	12	0.006	-3.66439e-06
2	1	0	1	0	50.0281	-0.429208	-0.430811	0.0283606	10	0.00143084	12	0.042	-1.22181e-05
2	1	0	1	0	50.0621	-0.361193	-0.362782	0.062308	11	0.00143251	12	0.076	-2.26042e-05
2	1	0	1	0	50.0981	-0.289178	-0.290629	0.103571	11	0.00143563	12	0.112	-3.01009e-05
2	1	0	1	0	50.1341	-0.217162	-0.218827	0.147486	11	0.00144028	12	0.148	-3.22739e-05
2	1	0	1	0	50.1701	-0.145175	-0.146733	0.196344	11	0.0014465	12	0.184	-2.88101e-05
2	1	0	1	0	50.2061	-0.0732312	-0.0748625	0.223706	11	0.00145398	12	0.22	-1.67472e-05
2	1	0	1	0	50.2421	-0.00121569	-0.00255277	0.240745	11	0.00146229	12	0.256	-6.14565e-07
2	1	0	1	0	50.2781	0.0707998	0.0692997	0.211777	11	0.00147043	12	0.292	1.4676e-05
2	1	0	1	0	50.3141	0.142815	0.141323	0.195621	11	0.0014778	12	0.328	2.76458e-05
2	1	0	1	0	50.3501	0.214831	0.213209	0.184493	11	0.00148465	12	0.364	3.93356e-05
2	1	0	1	0	50.3861	0.286846	0.285367	0.1961	11	0.00149152	12	0.4	5.59606e-05
2	1	0	1	0	50.4221	0.358762	0.357242	0.202932	11	0.00149865	12	0.436	7.24959e-05
2	1	0	1	0	50.4581	0.430777	0.429356	0.220184	11	0.00150619	12	0.472	9.45373e-05
2	1	0	1	0	50.4941	0.502793	0.501215	0.224883	11	0.00151418	12	0.508	0.000112715
2	1	0	1	0	50.5301	0.574808	0.573353	0.241986	11	0.00152262	12	0.544	0.000138743
2	1	0	1	0	50.5661	0.646824	0.645244	0.248625	11	0.00153152	12	0.58	0.000160423
2	1	0	1	0	50.6021	0.71884	0.717377	0.27057	11	0.00154087	12	0.616	0.000194101
2	1	0	1	0	50.6381	0.790755	0.789239	0.277586	11	0.00155071	12	0.652	0.000219082
2	1	0	1	0	50.6741	0.862771	0.86138	0.300555	11	0.00156104	12	0.688	0.000258892
2	1	0	1	0	50.7101	0.934786	0.93336	0.303209	11	0.00157186	12	0.724	0.000283003
2	1	0	0	0	50.7428	1.0002	0.99914	0.316514	11	0.00158213	12	0.7567	0.000316242
2	1	0	1	0	50.7761	0.933586	0.932132	0.263109	11	0.0015914	12	0.79	0.000245252
2	1	0	1	0	50.8121	0.86157	0.860123	0.245327	11	0.00160063	12	0.826	0.000211011
2	1	0	1	0	50.8481	0.789555	0.788186	0.22369	11	0.00160916	12	0.862	0.00017631
2	1	0	1	0	50.8841	0.717639	0.716163	0.21416	11	0.00161702	12	0.898	0.000153374
2	1	0	1	0	50.9201	0.645624	0.644127	0.194059	11	0.00162427	12	0.934	0.000124999
2	1	0	1	0	50.9561	0.573608	0.572088	0.176306	11	0.0016309	12	0.97	0.000100862
2	1	0	1	0	50.9921	0.501593	0.500176	0.154936	11	0.0016369	12	1.006	7.74956e-05
2	1	0	1	0	51.0281	0.429577	0.42807	0.139382	11	0.00164225	12	1.042	5.96655e-05
2	1	0	1	0	51.0641	0.357562	0.356088	0.123622	11	0.00164701	12	1.078	4.40202e-05
2	1	0	1	0	51.1001	0.285646	0.284066	0.104105	11	0.00165114	12	1.114	2.95726e-05
2	1	0	1	0	51.1361	0.213631	0.212193	0.0905164	11	0.00165463	12	1.15	1.92069e-05
2	1	0	1	0	51.1721	0.141615	0.140135	0.0638949	11	0.00165738	12	1.186	8.95388e-06
2	1	0	1	0	51.2081	0.0695996	0.0681739	0.0433535	11	0.0016592	12	1.222	2.95558e-06
2	0	0	1	0	51.2441	-0.00241595	-0.00394699	-0.0175519	11	0.00165969	12	0.000000000000000E+000	6.92771e-08
2	0	0	1	0	51.2801	-0.0744315	-0.0760074	-0.077058	11	0.00165814	12	0.036	5.85698e-06
2	0	0	1	0	51.3161	-0.146347	-0.147885	-0.162772	11	0.00165402	12	0.072	2.40716e-05
2	0	0	1	0	51.3521	-0.218363	-0.219909	-0.186868	11	0.00164779	12	0.108	4.1094e-05
2	0	0	1	0	51.3881	-0.290378	-0.291913	-0.198726	11	0.00164067	12	0.144	5.80106e-05
2	0	0	1	0	51.4241	-0.362394	-0.363937	-0.162843	11	0.00163382	12	0.18	5.92647e-05
2	0	0	1	0	51.4601	-0.434409	-0.435915	-0.155694	11	0.00162795	12	0.216	6.78695e-05
2	0	0	1	0	51.4961	-0.506425	-0.508023	-0.131342	11	0.00162294	12	0.252	6.67249e-05
2	0	0	1	0	51.5321	-0.57844	-0.579957	-0.142391	11	0.00161827	12	0.288	8.25806e-05
2	0	0	1	0	51.5681	-0.650356	-0.651925	-0.137118	11	0.00161336	12	0.324	8.93908e-05
2	0	0	1	0	51.6041	-0.722371	-0.72386	-0.154295	11	0.001608	12	0.36	0.000111688
2	0	0	1	0	51.6401	-0.794387	-0.796014	-0.162847	11	0.00160208	12	0.396	0.000129628
2	0	0	1	0	51.6761	-0.866403	-0.867905	-0.195542	11	0.00159554	12	0.432	0.000169712
2	0	0	1	0	51.7121	-0.938418	-0.940005	-0.2128	11	0.00158833	12	0.468	0.000200033
2	0	0	0	1	51.7434	-0.999831	-1.00157	-0.239564	11	0.00158148	12	0.4993	0.00023994
2	0	0	1	1	51.7785	-0.929216	-0.930804	-0.108721	11	0.00157698	12	0.5344	0.000101198
2	0	0	1	1	51.8145	-0.857201	-0.858751	-0.0833784	11	0.00157363	12	0.5704	7.16013e-05
2	0	0	1	1	51.8505	-0.785185	-0.786828	-0.063792	11	0.001571	12	0.6064	5.01933e-05
2	0	0	1	1	51.8865	-0.71317	-0.714674	-0.0432128	11	0.00156902	12	0.6424	3.08831e-05
2	0	0	1	1	51.9225	-0.641154	-0.64268	-0.0306771	11	0.00156762	12	0.6784	1.97155e-05
2	1	0	1	1	51.9585	-0.569238	-0.570664	-0.00971222	11	0.00156684	12	0.7144	5.54242e-06
2	0	0	1	1	51.9945	-0.497223	-0.498782	0.00327427	11	0.00156672	12	0.008	-1.63315e-06
2	1	0	1	1	52.0305	-0.425207	-0.426779	0.034958	11	0.00156744	12	0.044	-1.49194e-05
2	1	0	0	1	52.0554	-0.375396	-0.376959	0.0563149	11	0.00156859	12	0.0689	-2.12284e-05