File: resorufin_10x_frittedTiCt_FTOWE_AgAgClref_N2sparge_3_16_CV_C12/resorufin_10x_frittedTiCt_FTOWE_AgAgClref_N2sparge_3_10_CV_C12.txt
EC-Lab ASCII FILE
Nb header lines : 59

Cyclic Voltammetry

Run on channel : 12 (SN 15159)
User :
CE vs. WE compliance from -10 V to 10 V
Electrode connection : standard
Potential control : Ewe
Ewe ctrl range : min = -2.50 V, max = 2.50 V
Safety Limits :
	Do not start on E overload
Acquisition started on : 06/27/2024 22:37:21.030
Technique started on : 06/27/2024 22:46:37.499
Loaded Setting File :  NONE
Saved on :
	File : resorufin_10x_frittedTiCt_FTOWE_AgAgClref_N2sparge_3_10_CV_C12.mpr
	Directory : C:\Users\user\OneDrive - California Institute of Technology\Desktop\Big James\06272024_resorufin_spEC_test\
	Host : 10.8.34.190
Device : VMP3 (SN 1026)
Address : 131.215.231.69
EC-Lab for windows v11.50 (software)
Internet server v11.52 (firmware)
Command interpretor v11.50 (firmware)
Electrode material : Au/Pd
Initial state :
Electrolyte : NaCl (0.2M)
Comments : Fe(CN)63-/Fe(CN)64- 5.10-3 M
Reference electrode : SCE Saturated Calomel Electrode (0.241 V)
Electrode surface area : 0.001 cm²
Characteristic mass : 0.001 g
Equivalent Weight : 0.000 g/eq.
Density : 0.000 g/cm3
Volume (V) : 0.001 cm³
Cycle Definition : Charge/Discharge alternance
Ei (V)              0.000
vs.                 Eoc
dE/dt               50.000
dE/dt unit          mV/s
E1 (V)              1.000
vs.                 Ref
Step percent        50
N                   10
E range min (V)     -2.500
E range max (V)     2.500
I Range             Auto
I Range min         Unset
I Range max         Unset
I Range init        Unset
Bandwidth           5
E2 (V)              -1.000
vs.                 Ref
nc cycles           5
Reverse Scan        1
Ef (V)              0.000
vs.                 Eoc

mode	ox/red	error	control changes	counter inc.	time/s	control/V	Ewe/V	<I>/mA	cycle number	(Q-Qo)/C	I Range	step time/s	P/W
2	1	0	0	0	556.469	-0.357092	-0.359808	0.00671198	1	0.0000000E+000	14	0.000000000000000E+000	-2.41503e-06
2	0	0	1	0	557.291	-0.316034	-0.317482	0.00953899	1	5.05906e-06	13	0.7951	-3.02846e-06
2	1	0	0	0	558.091	-0.276025	-0.277426	0.0172413	1	1.59952e-05	13	1.5953	-4.78319e-06
2	1	0	1	0	558.891	-0.236016	-0.237565	0.0244017	1	3.30592e-05	13	2.3955	-5.79699e-06
2	1	0	0	0	559.691	-0.196008	-0.197536	0.0318115	1	5.61526e-05	13	3.1957	-6.28392e-06
2	1	0	1	0	560.491	-0.155999	-0.157511	0.038721	1	8.50628e-05	13	3.9959	-6.099e-06
2	1	0	0	0	561.292	-0.11599	-0.11757	0.0454649	1	0.000119555	13	4.7961	-5.3453e-06
2	1	0	1	0	562.092	-0.0759818	-0.0775937	0.05225	1	0.000159441	13	5.5963	-4.05427e-06
2	1	0	1	0	562.892	-0.0359732	-0.0376036	0.0587026	1	0.000204588	13	6.3963	-2.20743e-06
2	1	0	0	0	563.692	0.00403545	0.00249361	0.0649429	1	0.000254766	13	7.1965	1.61942e-07
2	1	0	1	0	564.492	0.0440441	0.0425834	0.0708072	1	0.000309633	13	7.9967	3.01521e-06
2	1	0	0	0	565.292	0.0840527	0.0824557	0.0771511	1	0.000369133	13	8.7969	6.36154e-06
2	1	0	1	0	566.093	0.124061	0.122418	0.0833543	1	0.000433411	13	9.5971	1.02041e-05
2	1	0	0	0	566.893	0.16407	0.162594	0.0898158	1	0.000502551	13	10.3973	1.46035e-05
2	1	0	1	0	567.723	0.205579	0.204098	0.0952517	1	0.000580154	12	11.2275	1.94407e-05
2	1	0	1	0	568.523	0.245583	0.24409	0.100743	1	0.000659544	12	12.0276	2.45904e-05
2	1	0	0	0	569.323	0.285596	0.28406	0.106805	1	0.000743742	12	12.8277	3.03389e-05
2	1	0	1	0	570.123	0.325605	0.324056	0.112632	1	0.000832728	12	13.6279	3.64991e-05
2	1	0	0	0	570.924	0.365613	0.364174	0.118893	1	0.000926471	12	14.4281	4.32977e-05
2	1	0	1	0	571.724	0.405622	0.404114	0.125588	1	0.00102493	12	15.2283	5.07517e-05
2	1	0	0	0	572.524	0.445631	0.444085	0.131087	1	0.00112811	12	16.0285	5.82136e-05
2	1	0	1	0	573.324	0.485639	0.484177	0.138066	1	0.00123596	12	16.8287	6.68486e-05
2	1	0	0	0	574.124	0.525648	0.524308	0.143668	1	0.00134848	12	17.6289	7.53263e-05
2	1	0	0	0	574.924	0.565656	0.564278	0.14983	1	0.00146562	12	18.4289	8.45459e-05
2	1	0	1	0	575.725	0.605665	0.60415	0.154025	1	0.00158739	12	19.2291	9.30542e-05
2	1	0	0	0	576.525	0.645674	0.644102	0.158817	1	0.00171374	12	20.0293	0.000102294
2	1	0	1	0	577.325	0.685682	0.684112	0.165138	1	0.00184463	12	20.8295	0.000112973
2	1	0	0	0	578.125	0.725691	0.724268	0.172467	1	0.00198002	12	21.6297	0.000124912
2	1	0	1	0	578.925	0.7657	0.764185	0.178183	1	0.00211986	12	22.4299	0.000136165
2	1	0	0	0	579.726	0.805708	0.804299	0.184218	1	0.00226413	12	23.2301	0.000148166
2	1	0	0	0	580.526	0.845717	0.844422	0.189023	1	0.00241274	12	24.0301	0.000159615
2	1	0	1	0	581.326	0.885726	0.884356	0.19354	1	0.00256575	12	24.8303	0.000171158
2	1	0	0	0	582.126	0.925734	0.924223	0.197624	1	0.00272305	12	25.6305	0.000182649
2	1	0	1	0	582.926	0.965743	0.964264	0.202813	1	0.00288457	12	26.4307	0.000195565
2	1	0	1	0	583.703	0.995449	0.994137	0.209032	1	0.00304521	12	27.2073	0.000207806
2	1	0	0	0	584.503	0.955441	0.954128	0.199886	1	0.0032076	12	28.0075	0.000190717
2	1	0	1	0	585.303	0.915432	0.914059	0.191424	1	0.00336369	12	28.8077	0.000174973
2	1	0	0	0	586.103	0.875423	0.874005	0.183277	1	0.00351376	12	29.6079	0.000160185
2	1	0	1	0	586.904	0.835415	0.833998	0.176315	1	0.003658	12	30.4081	0.000147047
2	1	0	0	0	587.704	0.795406	0.793881	0.170376	1	0.00379653	12	31.2083	0.000135259
2	1	0	0	0	588.504	0.755397	0.753981	0.163196	1	0.00392943	12	32.0083	0.000123047
2	1	0	1	0	589.304	0.715389	0.713996	0.157403	1	0.00405687	12	32.8085	0.000112385
2	1	0	0	0	590.104	0.67538	0.673885	0.149325	1	0.0041789	12	33.6087	0.000100628
2	1	0	1	0	590.904	0.635372	0.633792	0.141893	1	0.00429561	12	34.4089	8.99304e-05
2	1	0	0	0	591.705	0.595363	0.593917	0.136098	1	0.00440703	12	35.2091	8.08311e-05
2	1	0	1	0	592.505	0.555354	0.553817	0.130425	1	0.00451325	12	36.0093	7.22313e-05
2	1	0	0	0	593.305	0.515346	0.513979	0.124516	1	0.00461433	12	36.8095	6.39986e-05
2	1	0	1	0	594.105	0.475337	0.473902	0.117263	1	0.00471033	12	37.6097	5.55711e-05
2	1	0	1	0	594.905	0.435328	0.433797	0.109875	1	0.00480126	12	38.4097	4.76633e-05
2	1	0	0	0	595.705	0.39532	0.393806	0.10378	1	0.00488723	12	39.2099	4.08691e-05
2	1	0	1	0	596.506	0.355311	0.353887	0.0989398	1	0.00496824	12	40.0101	3.50135e-05
2	1	0	0	0	597.306	0.315303	0.313779	0.0938212	1	0.00504435	12	40.8103	2.94391e-05
2	1	0	1	0	598.106	0.275294	0.273954	0.0876933	1	0.00511558	12	41.6105	2.40239e-05
2	1	0	0	0	598.906	0.235285	0.233843	0.0805781	1	0.00518195	12	42.4107	1.88426e-05
2	1	0	1	0	599.706	0.195277	0.193686	0.0728057	1	0.00524348	12	43.2109	1.41014e-05
2	1	0	1	0	600.506	0.155268	0.153716	0.0675505	1	0.00530015	12	44.0109	1.03836e-05
2	1	0	0	0	601.307	0.115259	0.113873	0.063255	1	0.00535198	12	44.8111	7.20307e-06
2	1	0	1	0	602.107	0.0752508	0.0738431	0.0575158	1	0.00539889	12	45.6113	4.24715e-06
2	1	0	0	0	602.907	0.0352422	0.0338308	0.0497933	1	0.00544076	12	46.4115	1.68454e-06
2	1	0	1	0	603.707	-0.00476645	-0.00641182	0.0409834	1	0.0054773	12	47.2117	-2.62778e-07
2	1	0	0	0	604.507	-0.0447751	-0.046335	0.0347513	1	0.005508	12	48.0119	-1.6102e-06
2	1	0	1	0	605.308	-0.0847837	-0.0863378	0.0275642	1	0.00553225	12	48.8121	-2.37983e-06
2	1	0	1	0	606.108	-0.124797	-0.12634	0.0196539	1	0.0055496	12	49.6122	-2.48306e-06
2	1	0	0	0	606.908	-0.164801	-0.166268	0.0104306	1	0.00556017	12	50.4123	-1.73428e-06
2	1	0	1	0	607.708	-0.20481	-0.206405	0.00251933	1	0.00556473	12	51.2125	-5.20001e-07
2	1	0	0	0	608.508	-0.244818	-0.246397	-0.00140342	1	0.00556475	12	0.26	3.45798e-07
2	1	0	1	0	609.308	-0.284827	-0.286325	-0.0044543	1	0.00556131	12	1.0602	1.27538e-06
2	1	0	0	0	610.109	-0.324836	-0.326349	-0.00907873	1	0.00555443	12	1.8604	2.96284e-06
2	1	0	1	0	610.909	-0.364844	-0.366388	-0.014917	1	0.00554391	12	2.6606	5.46541e-06
2	0	0	0	0	611.709	-0.404853	-0.406463	-0.0203727	1	0.00552962	12	3.4608	8.28075e-06
2	0	0	0	0	612.509	-0.444862	-0.446401	-0.0245244	1	0.00551153	12	4.2608	1.09477e-05
2	0	0	1	0	613.309	-0.48487	-0.486345	-0.0282463	1	0.00548964	12	5.061	1.37374e-05
2	0	0	0	0	614.109	-0.524879	-0.526364	-0.0342885	1	0.00546367	12	5.8612	1.80482e-05
2	0	0	1	0	614.91	-0.564888	-0.566367	-0.0409829	1	0.0054334	12	6.6614	2.32114e-05
2	0	0	0	0	615.71	-0.604896	-0.606457	-0.0470124	1	0.00539874	12	7.4616	2.8511e-05
2	0	0	1	0	616.51	-0.644905	-0.646442	-0.0510965	1	0.0053596	12	8.2618	3.30309e-05
2	0	0	0	0	617.31	-0.684913	-0.68641	-0.056329	1	0.00531593	12	9.062	3.86648e-05
2	0	0	0	0	618.11	-0.724922	-0.726409	-0.0623571	1	0.00526771	12	9.862	4.52968e-05
2	0	0	1	0	618.91	-0.764931	-0.766406	-0.0694237	1	0.00521488	12	10.6622	5.32067e-05
2	0	0	0	0	619.711	-0.804939	-0.806521	-0.0752967	1	0.00515743	12	11.4624	6.07283e-05
2	0	0	1	0	620.511	-0.844948	-0.846449	-0.0798223	1	0.00509533	12	12.2626	6.75655e-05
2	0	0	0	0	621.311	-0.884957	-0.886446	-0.0845481	1	0.00502857	12	13.0628	7.49473e-05
2	0	0	1	0	622.111	-0.924965	-0.926468	-0.0917841	1	0.00495708	12	13.863	8.5035e-05
2	0	0	0	0	622.911	-0.964974	-0.966484	-0.0987608	1	0.00488075	12	14.6632	9.54507e-05
2	0	0	1	1	623.684	-0.996481	-0.997986	-0.101251	1	0.00480242	12	15.4358	0.000101047
2	0	0	0	1	624.484	-0.956472	-0.958058	-0.0907069	1	0.00472544	12	16.236	8.69025e-05
2	0	0	0	1	625.284	-0.916463	-0.918029	-0.0832003	1	0.004655	12	17.036	7.63803e-05
2	0	0	1	1	626.084	-0.876455	-0.877914	-0.0763728	1	0.00459042	12	17.8362	6.70488e-05
2	0	0	0	1	626.885	-0.836446	-0.838083	-0.0719823	1	0.00453141	12	18.6364	6.03271e-05
2	0	0	1	1	627.685	-0.796438	-0.797981	-0.0655382	1	0.00447787	12	19.4366	5.22983e-05
2	0	0	0	1	628.485	-0.756429	-0.757964	-0.0578018	1	0.00442968	12	20.2368	4.38117e-05
2	0	0	1	1	629.285	-0.71642	-0.717903	-0.0497512	1	0.00438676	12	21.037	3.57165e-05
2	0	0	0	1	630.085	-0.676412	-0.677966	-0.0429375	1	0.00434906	12	21.8372	2.91102e-05
2	0	0	0	1	630.885	-0.636403	-0.637918	-0.0360304	1	0.00431653	12	22.6372	2.29845e-05
2	0	0	1	1	631.686	-0.596394	-0.597861	-0.0306003	1	0.00428914	12	23.4374	1.82947e-05
2	0	0	0	1	632.486	-0.556386	-0.557947	-0.0255221	1	0.00426687	12	24.2376	1.424e-05
2	0	0	1	1	633.286	-0.516377	-0.517949	-0.0198168	1	0.00424971	12	25.0378	1.02641e-05
2	0	0	0	1	634.086	-0.476368	-0.477893	-0.0116303	1	0.00423767	12	25.838	5.55804e-06
2	1	0	1	1	634.886	-0.43636	-0.437878	-0.00419274	1	0.00423082	12	26.6382	1.83591e-06
2	1	0	0	1	635.687	-0.396351	-0.397767	0.00209175	1	0.00422925	12	0.12	-8.3203e-07
2	1	0	0	1	636.474	-0.356992	-0.358452	0.0145995	2	0.00423294	12	0.907	-5.23321e-06
2	1	0	1	1	637.265	-0.317434	-0.318992	0.0142896	2	0.00424199	12	1.6982	-4.55827e-06
2	1	0	0	1	638.065	-0.277425	-0.279007	0.0224304	2	0.00425664	12	2.4984	-6.25826e-06
2	1	0	1	1	638.865	-0.237417	-0.238907	0.0296804	2	0.00427683	12	3.2986	-7.09085e-06
2	1	0	0	1	639.665	-0.197408	-0.198889	0.035501	2	0.00430251	12	4.0988	-7.06077e-06
2	1	0	1	1	640.466	-0.157399	-0.158969	0.0400964	2	0.00433348	12	4.899	-6.37409e-06
2	1	0	0	1	641.266	-0.117391	-0.119035	0.0468324	2	0.00436958	12	5.6992	-5.57471e-06
2	1	0	1	1	642.066	-0.0773821	-0.0789317	0.0550185	2	0.00441071	12	6.4994	-4.3427e-06
2	1	0	1	1	642.866	-0.0373735	-0.0389342	0.0613647	2	0.00445683	12	7.2994	-2.38918e-06
2	1	0	0	1	643.666	0.00263514	0.00121185	0.0673938	2	0.00450766	12	8.0996	8.16714e-08
2	1	0	1	1	644.466	0.0426438	0.0411817	0.0710673	2	0.00456282	12	8.8998	2.92668e-06
2	1	0	0	1	645.267	0.0826524	0.0811018	0.0754459	2	0.00462227	12	9.7	6.11879e-06
2	1	0	1	1	646.067	0.122661	0.12112	0.0823146	2	0.00468618	12	10.5002	9.96998e-06
2	1	0	0	1	646.867	0.16267	0.161261	0.0896101	2	0.00475468	12	11.3004	1.44506e-05
2	1	0	1	1	647.667	0.202678	0.201185	0.094921	2	0.00482778	12	12.1006	1.90967e-05
2	1	0	1	1	648.467	0.242687	0.24126	0.0998824	2	0.00490544	12	12.9006	2.40977e-05
2	1	0	0	1	649.267	0.282696	0.281215	0.104465	2	0.00498767	12	13.7008	2.93772e-05
2	1	0	1	1	650.068	0.322704	0.321156	0.109804	2	0.00507439	12	14.501	3.52643e-05
2	1	0	0	1	650.868	0.362713	0.361233	0.11698	2	0.00516558	12	15.3012	4.22569e-05
2	1	0	1	1	651.668	0.402721	0.401297	0.123015	2	0.00526124	12	16.1014	4.93654e-05
2	1	0	0	1	652.468	0.44273	0.441225	0.12754	2	0.00536133	12	16.9016	5.6274e-05
2	1	0	1	1	653.268	0.482739	0.481277	0.131489	2	0.00546582	12	17.7018	6.32826e-05
2	1	0	1	1	654.068	0.522751	0.521183	0.137086	2	0.0055747	12	18.5019	7.14468e-05
2	1	0	0	1	654.869	0.562756	0.561266	0.143307	2	0.00568793	12	19.302	8.04334e-05
2	1	0	1	1	655.669	0.602765	0.601354	0.150137	2	0.00580551	12	20.1022	9.02855e-05
2	1	0	0	1	656.469	0.642773	0.641383	0.154794	2	0.0059274	12	20.9024	9.92822e-05
2	1	0	1	1	657.269	0.682782	0.681249	0.159109	2	0.00605353	12	21.7026	0.000108393
2	1	0	0	1	658.069	0.72279	0.721239	0.1643	2	0.00618387	12	22.5028	0.000118499
2	1	0	1	1	658.87	0.762799	0.761245	0.170525	2	0.00631837	12	23.303	0.000129811
2	1	0	0	1	659.67	0.802808	0.801368	0.176195	2	0.00645699	12	24.1032	0.000141197
2	1	0	0	1	660.47	0.842816	0.841471	0.181135	2	0.00659961	12	24.9032	0.00015242
2	1	0	1	1	661.27	0.882825	0.881376	0.184293	2	0.00674631	12	25.7034	0.000162432
2	1	0	0	1	662.07	0.922834	0.921502	0.18976	2	0.00689694	12	26.5036	0.000174864
2	1	0	1	1	662.87	0.962842	0.961338	0.195229	2	0.00705149	12	27.3038	0.000187681
2	1	0	1	1	663.645	0.99845	0.997046	0.200464	2	0.00720468	12	28.0784	0.000199872
2	1	0	0	1	664.445	0.958441	0.957102	0.190979	2	0.0073604	12	28.8786	0.000182787
2	1	0	1	1	665.245	0.918433	0.916947	0.18259	2	0.00750991	12	29.6788	0.000167425
2	1	0	0	1	666.046	0.878424	0.87695	0.175701	2	0.00765351	12	30.479	0.000154081
2	1	0	1	1	666.846	0.838415	0.837076	0.170773	2	0.0077914	12	31.2792	0.00014295
2	1	0	0	1	667.646	0.798407	0.796987	0.163966	2	0.00792377	12	32.0794	0.000130679
2	1	0	0	1	668.446	0.758398	0.756944	0.157432	2	0.00805066	12	32.8794	0.000119167
2	1	0	1	1	669.246	0.718389	0.716983	0.149348	2	0.00817228	12	33.6796	0.00010708
2	1	0	0	1	670.046	0.678381	0.676936	0.14162	2	0.00828867	12	34.4798	9.5868e-05
2	1	0	1	1	670.847	0.638372	0.636823	0.135086	2	0.00839993	12	35.28	8.60261e-05
2	1	0	0	1	671.647	0.598364	0.596852	0.130489	2	0.00850614	12	36.0802	7.78825e-05
2	1	0	1	1	672.447	0.558355	0.556959	0.124772	2	0.00860736	12	36.8804	6.94931e-05
2	1	0	0	1	673.247	0.518346	0.516958	0.118706	2	0.00870366	12	37.6806	6.13662e-05
2	1	0	0	1	674.047	0.478338	0.476935	0.1123	2	0.0087951	12	38.4806	5.35598e-05
2	1	0	1	1	674.847	0.438329	0.436848	0.105536	2	0.00888175	12	39.2808	4.61029e-05
2	1	0	0	1	675.648	0.39832	0.396948	0.0982076	2	0.00896367	12	40.081	3.89833e-05
2	1	0	1	1	676.448	0.358312	0.356791	0.0926478	2	0.00904088	12	40.8812	3.30559e-05
2	1	0	0	1	677.248	0.318303	0.316767	0.0875002	2	0.00911343	12	41.6814	2.77172e-05
2	1	0	1	1	678.048	0.278295	0.276833	0.0827935	2	0.00918136	12	42.4816	2.292e-05
2	1	0	0	1	678.848	0.238286	0.23687	0.077732	2	0.0092447	12	43.2818	1.84124e-05
2	1	0	1	1	679.649	0.198277	0.196869	0.0713006	2	0.00930345	12	44.082	1.40369e-05
2	1	0	1	1	680.449	0.158269	0.156778	0.0651656	2	0.0093576	12	44.882	1.02165e-05
2	1	0	0	1	681.249	0.11826	0.11678	0.0589953	2	0.00940715	12	45.6822	6.88946e-06
2	1	0	1	1	682.049	0.0782514	0.0767504	0.0526365	2	0.00945206	12	46.4824	4.03987e-06
2	1	0	0	1	682.849	0.0382428	0.0366574	0.0469271	2	0.00949219	12	47.2826	1.72022e-06
2	1	0	1	1	683.649	-0.00176581	-0.00321062	0.0415491	2	0.00952727	12	48.0828	-1.33398e-07
2	1	0	0	1	684.45	-0.0417745	-0.043276	0.0343934	2	0.00955677	12	48.883	-1.48841e-06
2	1	0	1	1	685.25	-0.0817831	-0.0832884	0.0256552	2	0.00958003	12	49.6832	-2.13678e-06
2	1	0	1	1	686.05	-0.121792	-0.123352	0.0164683	2	0.00959651	12	50.4832	-2.03139e-06
2	1	0	0	1	686.85	-0.1618	-0.163339	0.007505	2	0.00960619	12	51.2834	-1.22586e-06
2	1	0	1	1	687.65	-0.201809	-0.203453	0.000484763	2	0.00960982	12	52.0836	-9.86263e-08
2	0	0	0	1	688.45	-0.241818	-0.243327	-0.00311301	2	0.00960896	12	0.42	7.57481e-07
2	0	0	1	1	689.251	-0.281826	-0.283303	-0.00601193	2	0.00960499	12	1.2202	1.7032e-06
2	0	0	0	1	690.051	-0.321835	-0.323316	-0.0107827	2	0.00959796	12	2.0204	3.48621e-06
2	0	0	1	1	690.851	-0.361844	-0.363431	-0.0155755	2	0.00958761	12	2.8206	5.66062e-06
2	0	0	1	1	691.651	-0.401852	-0.403401	-0.0201162	2	0.00957383	12	3.6206	8.11489e-06
2	0	0	0	1	692.451	-0.441861	-0.443416	-0.024185	2	0.00955656	12	4.4208	1.0724e-05
2	0	0	1	1	693.251	-0.48187	-0.483515	-0.0280407	2	0.00953574	12	5.221	1.35581e-05
2	0	0	0	1	694.052	-0.521878	-0.523342	-0.0323035	2	0.00951105	12	6.0212	1.69058e-05
2	0	0	1	1	694.852	-0.561887	-0.56338	-0.0379908	2	0.00948224	12	6.8214	2.14033e-05
2	0	0	0	1	695.652	-0.601895	-0.603481	-0.0449136	2	0.0094492	12	7.6216	2.71045e-05
2	0	0	1	1	696.452	-0.641904	-0.64344	-0.0498144	2	0.00941184	12	8.4218	3.20526e-05
2	0	0	0	1	697.252	-0.681913	-0.683498	-0.0538755	2	0.0093701	12	9.222	3.68238e-05
2	0	0	0	1	698.052	-0.721921	-0.723516	-0.0590252	2	0.00932395	12	10.022	4.27057e-05
2	0	0	1	1	698.853	-0.76193	-0.763337	-0.0638294	2	0.00927334	12	10.8222	4.87233e-05
2	0	0	0	1	699.653	-0.801939	-0.803452	-0.0708266	2	0.00921824	12	11.6224	5.69058e-05
2	0	0	1	1	700.453	-0.841947	-0.843581	-0.0776651	2	0.00915864	12	12.4226	6.55168e-05
2	0	0	0	1	701.253	-0.881956	-0.883524	-0.0829459	2	0.00909448	12	13.2228	7.32846e-05
2	0	0	1	1	702.053	-0.921965	-0.923472	-0.0873878	2	0.00902574	12	14.023	8.07002e-05
2	0	0	0	1	702.854	-0.961973	-0.963528	-0.0927405	2	0.00895229	12	14.8232	8.93581e-05
2	0	0	1	0	703.626	-0.999481	-1.00099	-0.0992672	2	0.00887673	12	15.5958	9.93652e-05
2	0	0	1	0	704.426	-0.959473	-0.960974	-0.0906557	2	0.00880175	12	16.3958	8.71178e-05
2	0	0	0	0	705.226	-0.919464	-0.921059	-0.0841233	2	0.00873313	12	17.196	7.74825e-05
2	0	0	1	0	706.027	-0.879455	-0.881069	-0.076656	2	0.00867016	12	17.9962	6.75392e-05
2	0	0	0	0	706.827	-0.839447	-0.840994	-0.0686088	2	0.00861259	12	18.7964	5.76996e-05
2	0	0	1	0	707.627	-0.799438	-0.800893	-0.0622693	2	0.00856027	12	19.5966	4.9871e-05
2	0	0	0	0	708.427	-0.759429	-0.760985	-0.0563184	2	0.00851312	12	20.3968	4.28575e-05
2	0	0	1	0	709.227	-0.719421	-0.720945	-0.0512318	2	0.00847106	12	21.197	3.69353e-05
2	0	0	0	0	710.028	-0.679412	-0.681031	-0.0440712	2	0.00843406	12	21.9972	3.00139e-05
2	0	0	0	0	710.828	-0.639404	-0.640959	-0.0372172	2	0.00840206	12	22.7972	2.38547e-05
2	0	0	1	0	711.628	-0.599395	-0.600857	-0.0295258	2	0.00837504	12	23.5974	1.77408e-05
2	0	0	0	0	712.428	-0.559386	-0.560932	-0.0252635	2	0.00835297	12	24.3976	1.41711e-05
2	0	0	1	0	713.228	-0.519378	-0.52094	-0.0198761	2	0.00833586	12	25.1978	1.03543e-05
2	0	0	0	0	714.028	-0.479369	-0.480941	-0.0127162	2	0.00832373	12	25.998	6.11575e-06
2	0	0	1	0	714.829	-0.43936	-0.440846	-0.00599849	2	0.00831663	12	26.7982	2.64441e-06
2	0	0	0	0	715.629	-0.399352	-0.400931	-0.000848913	2	0.00831467	12	0.000000000000000E+000	3.40355e-07
2	0	0	0	0	716.429	-0.359343	-0.360879	0.00578868	2	0.00831795	12	0.8	-2.08902e-06
2	1	0	1	0	717.207	-0.320435	-0.321941	0.0139057	3	0.0083263	12	1.5782	-4.47682e-06
2	1	0	0	0	718.007	-0.280426	-0.281885	0.0196412	3	0.00834018	12	2.3784	-5.53656e-06
2	1	0	1	0	718.807	-0.240417	-0.241983	0.026152	3	0.00835949	12	3.1786	-6.32832e-06
2	1	0	0	0	719.608	-0.200409	-0.201926	0.0344286	3	0.00838418	12	3.9788	-6.95202e-06
2	1	0	1	0	720.408	-0.1604	-0.161963	0.0399055	3	0.00841409	12	4.779	-6.46323e-06
2	1	0	0	0	721.208	-0.120391	-0.121963	0.0450031	3	0.00844902	12	5.5792	-5.4887e-06
2	1	0	0	0	722.008	-0.0803828	-0.0818761	0.0522187	3	0.0084889	12	6.3792	-4.27546e-06
2	1	0	1	0	722.808	-0.0403741	-0.0418722	0.0587977	3	0.0085337	12	7.1794	-2.46199e-06
2	1	0	0	0	723.608	-0.000362075	-0.00186308	0.0631084	3	0.00858313	12	7.9796	-1.17576e-07
2	1	0	1	0	724.409	0.0396431	0.0381365	0.0686815	3	0.00863673	12	8.7798	2.61927e-06
2	1	0	0	0	725.209	0.0796518	0.0782199	0.0750943	3	0.00869441	12	9.58	5.87387e-06
2	1	0	1	0	726.009	0.11966	0.118086	0.0785542	3	0.00875639	12	10.3802	9.27614e-06
2	1	0	0	0	726.809	0.159669	0.158132	0.0849437	3	0.00882278	12	11.1804	1.34323e-05
2	1	0	1	0	727.609	0.199678	0.198127	0.0916866	3	0.0088936	12	11.9806	1.81656e-05
2	1	0	1	0	728.409	0.239686	0.238286	0.0977732	3	0.00896882	12	12.7806	2.3298e-05
2	1	0	0	0	729.21	0.279695	0.278228	0.101237	3	0.00904842	12	13.5808	2.8167e-05
2	1	0	1	0	730.01	0.319704	0.318138	0.105713	3	0.00913234	12	14.381	3.36314e-05
2	1	0	0	0	730.81	0.359712	0.358313	0.113512	3	0.00922056	12	15.1812	4.06727e-05
2	1	0	1	0	731.61	0.399721	0.398233	0.119752	3	0.00931305	12	15.9814	4.7689e-05
2	1	0	0	0	732.41	0.439729	0.438328	0.123059	3	0.00940977	12	16.7816	5.39401e-05
2	1	0	1	0	733.211	0.479738	0.47816	0.126316	3	0.0095107	12	17.5818	6.03993e-05
2	1	0	1	0	734.011	0.519747	0.518153	0.13174	3	0.00961577	12	18.3818	6.82615e-05
2	1	0	0	0	734.811	0.559755	0.558234	0.139322	3	0.00972502	12	19.182	7.77741e-05
2	1	0	1	0	735.611	0.599764	0.598286	0.145248	3	0.00983836	12	19.9822	8.68995e-05
2	1	0	0	0	736.411	0.639772	0.638309	0.149878	3	0.00995576	12	20.7824	9.56685e-05
2	1	0	1	0	737.211	0.679781	0.678298	0.153206	3	0.0100772	12	21.5826	0.000103919
2	1	0	0	0	738.012	0.71979	0.718228	0.157937	3	0.0102025	12	22.3828	0.000113435
2	1	0	1	0	738.812	0.759798	0.758259	0.162942	3	0.0103318	12	23.183	0.000123552
2	1	0	1	0	739.612	0.799807	0.79829	0.168575	3	0.0104648	12	23.983	0.000134571
2	1	0	0	0	740.412	0.839816	0.838441	0.174335	3	0.0106016	12	24.7832	0.000146169
2	1	0	1	0	741.212	0.879824	0.878448	0.178781	3	0.0107421	12	25.5834	0.00015705
2	1	0	0	0	742.012	0.919833	0.918445	0.182071	3	0.0108862	12	26.3836	0.000167222
2	1	0	1	0	742.813	0.959842	0.958478	0.185461	3	0.0110339	12	27.1838	0.000177761
2	1	0	0	0	743.609	0.99965	0.998202	0.186815	3	0.0111843	12	27.98	0.000186479
2	1	0	0	0	744.387	0.961442	0.960047	0.183438	3	0.0113293	12	28.7586	0.000176109
2	1	0	1	0	745.188	0.921433	0.920127	0.175805	3	0.0114723	12	29.5588	0.000161763
2	1	0	0	0	745.988	0.881425	0.880038	0.16865	3	0.0116095	12	30.359	0.000148419
2	1	0	1	0	746.788	0.841416	0.839995	0.160327	3	0.0117412	12	31.1592	0.000134674
2	1	0	1	0	747.588	0.801407	0.799872	0.153962	3	0.0118674	12	31.9592	0.00012315
2	1	0	0	0	748.388	0.761399	0.759886	0.146972	3	0.0119884	12	32.7594	0.000111682
2	1	0	1	0	749.188	0.72139	0.719904	0.142528	3	0.0121043	12	33.5596	0.000102606
2	1	0	0	0	749.989	0.681381	0.679882	0.137016	3	0.0122151	12	34.3598	9.31544e-05
2	1	0	1	0	750.789	0.641373	0.639977	0.1316	3	0.0123211	12	35.16	8.42206e-05
2	1	0	0	0	751.589	0.601364	0.60004	0.124898	3	0.0124222	12	35.9602	7.49439e-05
2	1	0	1	0	752.389	0.561356	0.559864	0.116981	3	0.0125185	12	36.7604	6.54932e-05
2	1	0	0	0	753.189	0.521347	0.51976	0.110514	3	0.0126102	12	37.5606	5.74407e-05
2	1	0	0	0	753.989	0.481338	0.47975	0.104811	3	0.0126972	12	38.3606	5.0283e-05
2	1	0	1	0	754.79	0.44133	0.439821	0.100858	3	0.0127797	12	39.1608	4.43596e-05
2	1	0	0	0	755.59	0.401321	0.399925	0.0965116	3	0.0128577	12	39.961	3.85974e-05
2	1	0	1	0	756.39	0.361312	0.359839	0.0911438	3	0.0129313	12	40.7612	3.27972e-05
2	1	0	0	0	757.19	0.321304	0.319919	0.0852999	3	0.0130005	12	41.5614	2.72891e-05
2	1	0	1	0	757.99	0.281295	0.279963	0.0790317	3	0.0130653	12	42.3616	2.2126e-05
2	1	0	0	0	758.791	0.241287	0.239825	0.0726049	3	0.0131258	12	43.1618	1.74124e-05
2	1	0	0	0	759.591	0.201278	0.199836	0.0670906	3	0.0131819	12	43.9618	1.34071e-05
2	1	0	1	0	760.391	0.161269	0.159745	0.0612113	3	0.0132337	12	44.762	9.7782e-06
2	1	0	0	0	761.191	0.121261	0.119673	0.0551772	3	0.0132811	12	45.5622	6.60323e-06
2	1	0	1	0	761.991	0.0812521	0.0797075	0.0501997	3	0.0133242	12	46.3624	4.00129e-06
2	1	0	0	0	762.791	0.0412435	0.0397493	0.045337	3	0.0133627	12	47.1626	1.80211e-06
2	1	0	1	0	763.592	0.00123484	-0.000234363	0.0402506	3	0.0133964	12	47.9628	-9.43325e-09
2	1	0	0	0	764.392	-0.0387738	-0.0403178	0.0337009	3	0.0134249	12	48.763	-1.35875e-06
2	1	0	1	0	765.192	-0.0787824	-0.0803326	0.0253267	3	0.0134473	12	49.5631	-2.03456e-06
2	1	0	1	0	765.992	-0.118791	-0.120232	0.0178589	3	0.0134631	12	50.3632	-2.14721e-06
2	1	0	0	0	766.792	-0.1588	-0.160244	0.0090913	3	0.0134722	12	51.1634	-1.45683e-06
2	1	0	1	0	767.592	-0.198808	-0.20037	0.00124306	3	0.0134752	12	0.02	-2.49072e-07
2	0	0	0	0	768.393	-0.238817	-0.240427	-0.00399797	3	0.0134738	12	0.5602	9.61222e-07
2	0	0	1	0	769.193	-0.278826	-0.280355	-0.00655219	3	0.0134696	12	1.3604	1.83694e-06
2	0	0	0	0	769.993	-0.318834	-0.320381	-0.00896657	3	0.0134627	12	2.1606	2.87272e-06
2	0	0	1	0	770.793	-0.358843	-0.360392	-0.0123346	3	0.0134528	12	2.9608	4.44528e-06
2	0	0	1	0	771.593	-0.398852	-0.400426	-0.0166237	3	0.0134397	12	3.7608	6.65654e-06
2	1	0	0	0	772.393	-0.43886	-0.440327	-0.0210074	3	0.0134233	12	4.561	9.25013e-06
2	0	0	1	0	773.194	-0.478869	-0.480389	-0.0267571	3	0.0134035	12	5.3612	1.28538e-05
2	0	0	0	0	773.994	-0.518878	-0.520464	-0.0320554	3	0.01338	12	6.1614	1.66837e-05
2	0	0	1	0	774.794	-0.558886	-0.560392	-0.0359406	3	0.0133526	12	6.9616	2.01408e-05
2	0	0	0	0	775.594	-0.598895	-0.600314	-0.0401436	3	0.013321	12	7.7618	2.40988e-05
2	0	0	1	0	776.394	-0.638903	-0.640401	-0.0464517	3	0.0132854	12	8.562	2.97477e-05
2	0	0	1	0	777.194	-0.678912	-0.680394	-0.0524386	3	0.0132454	12	9.362	3.56789e-05
2	0	0	0	0	777.995	-0.718921	-0.720459	-0.0590424	3	0.0132012	12	10.1622	4.25376e-05
2	0	0	1	0	778.795	-0.758929	-0.760457	-0.0638832	3	0.0131527	12	10.9624	4.85804e-05
2	0	0	0	0	779.595	-0.798938	-0.800407	-0.0679079	3	0.0130998	12	11.7626	5.4354e-05
2	0	0	1	0	780.395	-0.838947	-0.840491	-0.073147	3	0.0130424	12	12.5628	6.14794e-05
2	0	0	0	0	781.195	-0.878955	-0.880525	-0.07975	3	0.0129807	12	13.363	7.02219e-05
2	0	0	1	0	781.996	-0.918964	-0.920459	-0.0861873	3	0.0129145	12	14.1632	7.93318e-05
2	0	0	0	0	782.796	-0.958973	-0.960609	-0.0920403	3	0.0128436	12	14.9634	8.84147e-05
2	0	0	0	0	783.596	-0.998981	-1.00058	-0.0979977	3	0.012768	12	15.7634	9.80546e-05
2	0	0	1	1	784.368	-0.962473	-0.964046	-0.0866339	3	0.0126974	12	16.536	8.3519e-05
2	0	0	0	1	785.169	-0.922465	-0.923906	-0.0789409	3	0.0126304	12	17.3362	7.2934e-05
2	0	0	1	1	785.969	-0.882456	-0.883888	-0.0727108	3	0.0125689	12	18.1364	6.42681e-05
2	0	0	0	1	786.769	-0.842447	-0.843943	-0.0667893	3	0.0125126	12	18.9366	5.63663e-05
2	0	0	1	1	787.569	-0.802439	-0.803969	-0.0617529	3	0.0124613	12	19.7368	4.96474e-05
2	0	0	0	1	788.369	-0.76243	-0.764032	-0.0565057	3	0.0124151	12	20.537	4.31721e-05
2	0	0	1	1	789.17	-0.722421	-0.72402	-0.0500539	3	0.0123738	12	21.3372	3.624e-05
2	0	0	1	1	789.97	-0.682413	-0.684017	-0.0440134	3	0.0123374	12	22.1372	3.01059e-05
2	0	0	0	1	790.77	-0.642404	-0.643985	-0.0375202	3	0.0123059	12	22.9374	2.41625e-05
2	0	0	1	1	791.57	-0.602396	-0.603956	-0.0304701	3	0.0122792	12	23.7376	1.84026e-05
2	0	0	0	1	792.37	-0.562387	-0.563916	-0.0236941	3	0.0122573	12	24.5378	1.33615e-05
2	0	0	1	1	793.17	-0.522378	-0.523922	-0.0177723	3	0.0122402	12	25.338	9.3113e-06
2	0	0	0	1	793.971	-0.48237	-0.483951	-0.0111581	3	0.012228	12	26.1382	5.39999e-06
2	1	0	1	1	794.771	-0.442361	-0.443902	-0.00483367	3	0.0122206	12	26.9384	2.14568e-06
2	1	0	0	1	795.571	-0.402352	-0.403794	0.00124669	3	0.0122183	12	0.000000000000000E+000	-5.03404e-07
2	1	0	0	1	796.371	-0.362344	-0.363775	0.00797194	3	0.0122211	12	0.7	-2.89999e-06
2	1	0	1	1	797.149	-0.323435	-0.324947	0.0118314	4	0.0122288	12	1.4782	-3.84456e-06
2	1	0	0	1	797.949	-0.283427	-0.28497	0.01813	4	0.012242	12	2.2784	-5.16651e-06
2	1	0	1	1	798.75	-0.243418	-0.244926	0.0250204	4	0.0122605	12	3.0786	-6.12815e-06
2	1	0	0	1	799.55	-0.203409	-0.204958	0.0311772	4	0.0122843	12	3.8788	-6.39002e-06
2	1	0	1	1	800.35	-0.163401	-0.165036	0.0378976	4	0.0123133	12	4.679	-6.25447e-06
2	1	0	0	1	801.15	-0.123392	-0.124991	0.0448025	4	0.0123471	12	5.4792	-5.59991e-06
2	1	0	0	1	801.95	-0.0833834	-0.0849871	0.0505095	4	0.0123859	12	6.2792	-4.29266e-06
2	1	0	1	1	802.75	-0.0433748	-0.0448506	0.0575422	4	0.0124295	12	7.0794	-2.5808e-06
2	1	0	0	1	803.551	-0.00336615	-0.00483403	0.0628093	4	0.0124776	12	7.8796	-3.03622e-07
2	1	0	1	1	804.351	0.0366425	0.035174	0.0668694	4	0.0125298	12	8.6798	2.35207e-06
2	1	0	0	1	805.151	0.0766511	0.0751217	0.0705718	4	0.0125859	12	9.48	5.30147e-06
2	1	0	1	1	805.951	0.11666	0.115111	0.0764258	4	0.0126461	12	10.2802	8.79742e-06
2	1	0	0	1	806.751	0.156668	0.155218	0.0830202	4	0.0127106	12	11.0804	1.28863e-05
2	1	0	0	1	807.551	0.196677	0.195199	0.0887263	4	0.0127794	12	11.8804	1.73193e-05
2	1	0	1	1	808.352	0.236686	0.235124	0.0946478	4	0.0128525	12	12.6806	2.2254e-05
2	1	0	0	1	809.152	0.276694	0.275292	0.100607	4	0.0129297	12	13.4808	2.76963e-05
2	1	0	1	1	809.952	0.316703	0.315286	0.10471	4	0.0130112	12	14.281	3.30135e-05
2	1	0	0	1	810.752	0.356712	0.355292	0.109058	4	0.0130968	12	15.0812	3.87473e-05
2	1	0	1	1	811.552	0.39672	0.395144	0.112372	4	0.0131864	12	15.8814	4.4403e-05
2	1	0	0	1	812.353	0.436729	0.435131	0.117857	4	0.0132802	12	16.6816	5.12833e-05
2	1	0	1	1	813.153	0.476735	0.475231	0.124557	4	0.0133779	12	17.4817	5.91932e-05
2	1	0	1	1	813.953	0.516746	0.515204	0.129065	4	0.0134797	12	18.2818	6.64949e-05
2	1	0	0	1	814.753	0.556755	0.55527	0.134615	4	0.0135854	12	19.082	7.47475e-05
2	1	0	1	1	815.553	0.596763	0.595349	0.140255	4	0.0136949	12	19.8822	8.35004e-05
2	1	0	0	1	816.353	0.636772	0.635321	0.14554	4	0.0138083	12	20.6824	9.24645e-05
2	1	0	1	1	817.154	0.67678	0.675265	0.149554	4	0.0139255	12	21.4826	0.000100989
2	1	0	0	1	817.954	0.716789	0.715336	0.15458	4	0.0140464	12	22.2828	0.000110577
2	1	0	1	1	818.754	0.756798	0.755385	0.158317	4	0.0141709	12	23.083	0.000119591
2	1	0	1	1	819.554	0.796806	0.795355	0.163584	4	0.0142989	12	23.883	0.000130107
2	1	0	0	1	820.354	0.836815	0.835461	0.166964	4	0.0144304	12	24.6832	0.000139492
2	1	0	1	1	821.154	0.876824	0.875434	0.171568	4	0.0145653	12	25.4834	0.000150197
2	1	0	0	1	821.955	0.916832	0.915548	0.174756	4	0.0147035	12	26.2836	0.000159998
2	1	0	1	1	822.755	0.956841	0.955532	0.1786	4	0.0148449	12	27.0838	0.000170658
2	1	0	0	1	823.555	0.996849	0.995484	0.181822	4	0.0149895	12	27.884	0.000181001
2	1	0	0	1	824.33	0.964443	0.963048	0.174553	4	0.015128	12	28.6586	0.000168103
2	1	0	1	1	825.13	0.924434	0.923002	0.167534	4	0.015265	12	29.4588	0.000154634
2	1	0	0	1	825.93	0.884425	0.882932	0.160791	4	0.0153964	12	30.259	0.000141967
2	1	0	1	1	826.73	0.844417	0.842996	0.154818	4	0.0155223	12	31.0592	0.00013051
2	1	0	1	1	827.53	0.804408	0.802907	0.148607	4	0.015643	12	31.8592	0.000119318
2	1	0	0	1	828.33	0.764399	0.762995	0.142527	4	0.0157586	12	32.6594	0.000108747
2	1	0	1	1	829.131	0.724391	0.72296	0.136679	4	0.0158693	12	33.4596	9.88134e-05
2	1	0	0	1	829.931	0.684382	0.682975	0.130241	4	0.0159751	12	34.2598	8.89516e-05
2	1	0	1	1	830.731	0.644373	0.6429	0.12381	4	0.0160762	12	35.06	7.95972e-05
2	1	0	0	1	831.531	0.604365	0.602923	0.117111	4	0.0161728	12	35.8602	7.06091e-05
2	1	0	1	1	832.331	0.564356	0.562863	0.112001	4	0.0162648	12	36.6604	6.30409e-05
2	1	0	1	1	833.131	0.524348	0.522811	0.106622	4	0.0163523	12	37.4604	5.57429e-05
2	1	0	0	1	833.932	0.484339	0.482909	0.102276	4	0.0164354	12	38.2606	4.93902e-05
2	1	0	1	1	834.732	0.44433	0.442926	0.0969231	4	0.0165142	12	39.0608	4.29298e-05
2	1	0	0	1	835.532	0.404322	0.402826	0.0905472	4	0.0165888	12	39.861	3.64748e-05
2	1	0	1	1	836.332	0.364313	0.362836	0.0848274	4	0.0166592	12	40.6612	3.07784e-05
2	1	0	0	1	837.132	0.324304	0.322767	0.0803481	4	0.0167254	12	41.4614	2.59337e-05
2	1	0	1	1	837.933	0.284296	0.282911	0.076457	4	0.0167874	12	42.2616	2.16305e-05
2	1	0	0	1	838.733	0.244287	0.242895	0.070953	4	0.0168454	12	43.0618	1.72342e-05
2	1	0	0	1	839.533	0.204279	0.202814	0.064509	4	0.0168992	12	43.8618	1.30833e-05
2	1	0	1	1	840.333	0.16427	0.162774	0.0584925	4	0.0169489	12	44.662	9.52107e-06
2	1	0	0	1	841.133	0.124261	0.12276	0.0549259	4	0.0169946	12	45.4622	6.74268e-06
2	1	0	1	1	841.933	0.0842527	0.0827527	0.051223	4	0.017036	12	46.2624	4.23884e-06
2	1	0	0	1	842.734	0.0442441	0.0428497	0.045654	4	0.0170732	12	47.0626	1.95626e-06
2	1	0	1	1	843.534	0.00423549	0.00273234	0.0379111	4	0.0171058	12	47.8628	1.03586e-07
2	1	0	0	1	844.334	-0.0357732	-0.0373882	0.0299757	4	0.0171333	12	48.663	-1.12074e-06
2	1	0	0	1	845.134	-0.0757818	-0.0773603	0.0227192	4	0.0171551	12	49.463	-1.75757e-06
2	1	0	1	1	845.934	-0.11579	-0.117283	0.0157482	4	0.0171704	12	50.2632	-1.847e-06
2	1	0	0	1	846.734	-0.155799	-0.157388	0.00824499	4	0.0171791	12	51.0634	-1.29766e-06
2	1	0	1	1	847.535	-0.195808	-0.197396	0.00183392	4	0.0171817	12	0.000000000000000E+000	-3.62008e-07
2	1	0	0	1	848.335	-0.235816	-0.237244	-0.00196164	4	0.0171798	12	0.6602	4.65387e-07
2	1	0	1	1	849.135	-0.275825	-0.277279	-0.00529406	4	0.0171755	12	1.4604	1.46793e-06
2	0	0	0	1	849.935	-0.315834	-0.317349	-0.00960705	4	0.0171689	12	2.2606	3.04879e-06
2	0	0	0	1	850.735	-0.355842	-0.35739	-0.0136349	4	0.0171596	12	3.0606	4.87298e-06
2	0	0	1	1	851.535	-0.395851	-0.397421	-0.0180029	4	0.0171473	12	3.8608	7.15473e-06
2	0	0	0	1	852.336	-0.43586	-0.437471	-0.0227536	4	0.0171317	12	4.661	9.95407e-06
2	0	0	1	1	853.136	-0.475868	-0.477454	-0.0266261	4	0.0171129	12	5.4612	1.27128e-05
2	0	0	0	1	853.936	-0.515877	-0.517467	-0.0307832	4	0.0170906	12	6.2614	1.59293e-05
2	0	0	1	1	854.736	-0.555886	-0.557425	-0.034454	4	0.0170644	12	7.0616	1.92055e-05
2	0	0	0	1	855.536	-0.595894	-0.597404	-0.0390072	4	0.0170342	12	7.8618	2.33031e-05
2	0	0	1	1	856.337	-0.635903	-0.63744	-0.0434942	4	0.017	12	8.662	2.77249e-05
2	0	0	1	1	857.137	-0.675911	-0.677419	-0.048667	4	0.0169617	12	9.462	3.2968e-05
2	0	0	0	1	857.937	-0.71592	-0.717395	-0.0541507	4	0.0169192	12	10.2622	3.88474e-05
2	0	0	1	1	858.737	-0.755929	-0.757477	-0.0589751	4	0.0168725	12	11.0624	4.46723e-05
2	0	0	0	1	859.537	-0.795937	-0.79748	-0.0641339	4	0.0168215	12	11.8626	5.11455e-05
2	0	0	1	1	860.337	-0.835946	-0.837525	-0.0697571	4	0.0167662	12	12.6628	5.84233e-05
2	0	0	0	1	861.138	-0.875955	-0.877444	-0.0749573	4	0.0167066	12	13.463	6.57708e-05
2	0	0	1	1	861.938	-0.915963	-0.917426	-0.0806813	4	0.0166426	12	14.2632	7.40192e-05
2	0	0	1	1	862.738	-0.955972	-0.95746	-0.0861455	4	0.0165741	12	15.0632	8.24809e-05
2	0	0	0	1	863.538	-0.995981	-0.997387	-0.0923438	4	0.0165008	12	15.8634	9.21025e-05
2	0	0	1	0	864.311	-0.965474	-0.96703	-0.0862296	4	0.0164315	12	16.636	8.33866e-05
2	0	0	0	0	865.111	-0.925465	-0.927041	-0.0792571	4	0.0163659	12	17.4362	7.34745e-05
2	0	0	1	0	865.911	-0.885457	-0.887016	-0.0731811	4	0.0163056	12	18.2364	6.49128e-05
2	0	0	0	0	866.711	-0.845448	-0.847004	-0.0672109	4	0.0162503	12	19.0366	5.69279e-05
2	0	0	1	0	867.511	-0.805439	-0.806947	-0.0608574	4	0.0162	12	19.8368	4.91087e-05
2	0	0	0	0	868.312	-0.765431	-0.766923	-0.0550338	4	0.0161546	12	20.637	4.22067e-05
2	0	0	1	0	869.112	-0.725422	-0.726929	-0.0487823	4	0.0161139	12	21.4372	3.54613e-05
2	0	0	1	0	869.912	-0.685414	-0.686925	-0.0424229	4	0.016078	12	22.2372	2.91414e-05
2	0	0	0	0	870.712	-0.645405	-0.646916	-0.0364307	4	0.0160468	12	23.0374	2.35676e-05
2	0	0	1	0	871.512	-0.605396	-0.606896	-0.0306236	4	0.0160204	12	23.8376	1.85854e-05
2	0	0	0	0	872.312	-0.565388	-0.566897	-0.0247115	4	0.0159986	12	24.6378	1.40089e-05
2	0	0	1	0	873.113	-0.525379	-0.526912	-0.0188185	4	0.0159815	12	25.438	9.9157e-06
2	0	0	0	0	873.913	-0.48537	-0.486899	-0.0127847	4	0.0159692	12	26.2382	6.22486e-06
2	0	0	1	0	874.713	-0.445362	-0.446864	-0.0065966	4	0.0159617	12	27.0384	2.94778e-06
2	0	0	1	0	875.513	-0.405353	-0.406881	8.09804e-05	4	0.0159591	12	0.000000000000000E+000	-3.29494e-08
2	1	0	0	0	876.313	-0.365344	-0.366861	0.00624112	4	0.0159614	12	0.68	-2.28962e-06
2	1	0	1	0	877.091	-0.326436	-0.327891	0.0133275	5	0.0159686	12	1.4582	-4.36997e-06
2	1	0	0	0	877.892	-0.286427	-0.28789	0.0200409	5	0.0159812	12	2.2584	-5.76959e-06
2	1	0	1	0	878.692	-0.246419	-0.247857	0.0267515	5	0.015999	12	3.0586	-6.63054e-06
2	1	0	0	0	879.492	-0.20641	-0.207838	0.0331547	5	0.016022	12	3.8588	-6.89081e-06
2	1	0	1	0	880.292	-0.166401	-0.16779	0.0392298	5	0.0160501	12	4.659	-6.58236e-06
2	1	0	1	0	881.092	-0.126393	-0.127897	0.0452987	5	0.016083	12	5.459	-5.79357e-06
2	1	0	0	0	881.892	-0.0863841	-0.0878668	0.0513191	5	0.0161207	12	6.2592	-4.50925e-06
2	1	0	1	0	882.693	-0.0463754	-0.0478916	0.0573995	5	0.0161632	12	7.0594	-2.74895e-06
2	1	0	0	0	883.493	-0.0063668	-0.0079026	0.0624343	5	0.0162101	12	7.8596	-4.93394e-07
2	1	0	1	0	884.293	0.0336418	0.0322424	0.0673668	5	0.0162611	12	8.6598	2.17206e-06
2	1	0	0	0	885.093	0.0736505	0.0723056	0.0717769	5	0.0163158	12	9.46	5.18987e-06
2	1	0	1	0	885.893	0.113659	0.112295	0.076372	5	0.0163745	12	10.2602	8.57617e-06
2	1	0	0	0	886.694	0.153668	0.152266	0.0808838	5	0.0164374	12	11.0604	1.23158e-05
2	1	0	0	0	887.494	0.193676	0.192256	0.0870552	5	0.0165044	12	11.8604	1.67368e-05
2	1	0	1	0	888.294	0.233685	0.232343	0.0915305	5	0.0165755	12	12.6606	2.12665e-05
2	1	0	0	0	889.094	0.273694	0.272212	0.0960959	5	0.0166508	12	13.4608	2.61585e-05
2	1	0	1	0	889.894	0.313702	0.312232	0.100622	5	0.0167301	12	14.261	3.14174e-05
2	1	0	0	0	890.694	0.353711	0.352164	0.105067	5	0.0168133	12	15.0612	3.70007e-05
2	1	0	1	0	891.495	0.393719	0.392194	0.109936	5	0.0169006	12	15.8614	4.31162e-05
2	1	0	0	0	892.295	0.433728	0.432147	0.114732	5	0.0169917	12	16.6616	4.95811e-05
2	1	0	0	0	893.095	0.473737	0.472175	0.119353	5	0.0170867	12	17.4616	5.63554e-05
2	1	0	1	0	893.895	0.513745	0.512223	0.12448	5	0.0171856	12	18.2618	6.37616e-05
2	1	0	0	0	894.695	0.553754	0.55223	0.128749	5	0.0172881	12	19.062	7.10989e-05
2	1	0	1	0	895.495	0.593763	0.592175	0.133347	5	0.0173944	12	19.8622	7.89649e-05
2	1	0	0	0	896.296	0.633771	0.632252	0.138177	5	0.0175043	12	20.6624	8.73627e-05
2	1	0	1	0	897.096	0.67378	0.67225	0.143121	5	0.0176178	12	21.4626	9.62128e-05
2	1	0	0	0	897.896	0.713788	0.712247	0.147745	5	0.0177347	12	22.2628	0.000105231
2	1	0	0	0	898.696	0.753797	0.752254	0.15152	5	0.017855	12	23.0628	0.000113982
2	1	0	1	0	899.496	0.793806	0.792261	0.156076	5	0.0179786	12	23.863	0.000123653
2	1	0	0	0	900.296	0.833814	0.832364	0.1602	5	0.0181054	12	24.6632	0.000133345
2	1	0	1	0	901.097	0.873823	0.872415	0.16481	5	0.0182354	12	25.4634	0.000143783
2	1	0	0	0	901.897	0.913832	0.912409	0.16857	5	0.0183684	12	26.2636	0.000153804
2	1	0	1	0	902.697	0.95384	0.952419	0.172875	5	0.0185043	12	27.0638	0.000164649
2	1	0	0	0	903.497	0.993849	0.992496	0.176791	5	0.0186431	12	27.864	0.000175464
2	1	0	0	0	904.272	0.967443	0.966095	0.169094	5	0.0187765	12	28.6386	0.000163361
2	1	0	1	0	905.072	0.927435	0.926077	0.162065	5	0.0189083	12	29.4388	0.000150085
2	1	0	0	0	905.872	0.887426	0.885959	0.154774	5	0.0190346	12	30.239	0.000137124
2	1	0	1	0	906.672	0.847413	0.846061	0.14916	5	0.0191555	12	31.0391	0.000126199
2	1	0	1	0	907.472	0.807409	0.805939	0.141813	5	0.0192713	12	31.8392	0.000114293
2	1	0	0	0	908.273	0.7674	0.765946	0.135854	5	0.0193822	12	32.6394	0.000104057
2	1	0	1	0	909.073	0.727391	0.725884	0.129617	5	0.0194884	12	33.4396	9.40868e-05
2	1	0	0	0	909.873	0.687383	0.685883	0.123767	5	0.0195899	12	34.2398	8.48898e-05
2	1	0	1	0	910.673	0.647374	0.645837	0.117858	5	0.0196868	12	35.04	7.61174e-05
2	1	0	0	0	911.473	0.607366	0.605822	0.112369	5	0.0197794	12	35.8402	6.80758e-05
2	1	0	1	0	912.274	0.567357	0.56584	0.106838	5	0.0198676	12	36.6404	6.0453e-05
2	1	0	1	0	913.074	0.527348	0.525838	0.101877	5	0.0199516	12	37.4404	5.35706e-05
2	1	0	0	0	913.874	0.48734	0.485825	0.0967152	5	0.0200314	12	38.2406	4.69867e-05
2	1	0	1	0	914.674	0.447331	0.445805	0.0913001	5	0.0201071	12	39.0408	4.07021e-05
2	1	0	0	0	915.474	0.407322	0.405836	0.0868633	5	0.0201787	12	39.841	3.52523e-05
2	1	0	1	0	916.274	0.367314	0.365803	0.0817001	5	0.0202464	12	40.6412	2.98861e-05
2	1	0	0	0	917.075	0.327305	0.325862	0.0765692	5	0.02031	12	41.4414	2.4951e-05
2	1	0	1	0	917.875	0.287297	0.285835	0.0718815	5	0.0203698	12	42.2416	2.05463e-05
2	1	0	1	0	918.675	0.247288	0.245798	0.0668472	5	0.0204256	12	43.0416	1.64309e-05
2	1	0	0	0	919.475	0.207279	0.205807	0.0619157	5	0.0204776	12	43.8418	1.27427e-05
2	1	0	1	0	920.275	0.167271	0.16579	0.0577896	5	0.0205256	12	44.642	9.58092e-06
2	1	0	0	0	921.075	0.127262	0.125788	0.0519352	5	0.0205697	12	45.4422	6.53283e-06
2	1	0	1	0	921.876	0.0872534	0.0858118	0.0475122	5	0.0206099	12	46.2424	4.0771e-06
2	1	0	0	0	922.676	0.0472448	0.0458079	0.0419519	5	0.0206459	12	47.0426	1.92173e-06
2	1	0	1	0	923.476	0.00723614	0.00576908	0.0360259	5	0.0206776	12	47.8428	2.07836e-07
2	1	0	1	0	924.276	-0.0327703	-0.0343335	0.0303306	5	0.0207045	12	48.6429	-1.04135e-06
2	1	0	0	0	925.076	-0.0727812	-0.0743957	0.0221354	5	0.0207258	12	49.443	-1.64678e-06
2	1	0	1	0	925.876	-0.11279	-0.114364	0.0140897	5	0.0207408	12	50.2432	-1.61136e-06
2	1	0	0	0	926.677	-0.152798	-0.154297	0.00605599	5	0.0207493	12	51.0434	-9.34422e-07
2	0	0	1	0	927.477	-0.192807	-0.194355	-0.000345623	5	0.0207517	12	0.02	6.71736e-08
2	0	0	0	0	928.277	-0.232816	-0.234374	-0.00463536	5	0.0207497	12	0.6202	1.08641e-06
2	0	0	1	0	929.077	-0.272824	-0.274411	-0.00684205	5	0.0207455	12	1.4204	1.87753e-06
2	0	0	0	0	929.877	-0.312833	-0.314402	-0.00962979	5	0.0207393	12	2.2206	3.02762e-06
2	0	0	0	0	930.677	-0.352842	-0.354355	-0.0129815	5	0.0207305	12	3.0206	4.60005e-06
2	0	0	1	0	931.478	-0.39285	-0.39438	-0.0162667	5	0.0207188	12	3.8208	6.41525e-06
2	0	0	0	0	932.278	-0.432859	-0.43437	-0.0204917	5	0.020704	12	4.621	8.90096e-06
2	0	0	1	0	933.078	-0.472868	-0.474419	-0.0249886	5	0.0206861	12	5.4212	1.18551e-05
2	0	0	0	0	933.878	-0.512876	-0.514418	-0.0296872	5	0.0206647	12	6.2214	1.52716e-05
2	0	0	1	0	934.678	-0.552885	-0.554469	-0.0343572	5	0.0206396	12	7.0216	1.905e-05
2	0	0	0	0	935.479	-0.592893	-0.594424	-0.0391081	5	0.0206107	12	7.8218	2.32468e-05
2	0	0	0	0	936.279	-0.632902	-0.634462	-0.0441393	5	0.0205778	12	8.6218	2.80048e-05
2	0	0	1	0	937.079	-0.672911	-0.674367	-0.0491015	5	0.0205409	12	9.422	3.31124e-05
2	0	0	0	0	937.879	-0.712919	-0.714427	-0.0544078	5	0.0205	12	10.2222	3.88704e-05
2	0	0	1	0	938.679	-0.752928	-0.754419	-0.0593908	5	0.0204548	12	11.0224	4.48055e-05
2	0	0	0	0	939.479	-0.792937	-0.794477	-0.0644805	5	0.0204056	12	11.8226	5.12283e-05
2	0	0	1	0	940.28	-0.832945	-0.834577	-0.0698262	5	0.020352	12	12.6228	5.82753e-05
2	0	0	0	0	941.08	-0.872954	-0.874649	-0.0745093	5	0.0202943	12	13.423	6.51695e-05
2	0	0	1	0	941.88	-0.912963	-0.914618	-0.0801226	5	0.0202322	12	14.2232	7.32815e-05
2	0	0	1	0	942.68	-0.952971	-0.954605	-0.0860318	5	0.0201657	12	15.0232	8.21263e-05
2	0	0	0	0	943.48	-0.99298	-0.994643	-0.0919825	5	0.0200945	12	15.8234	9.14897e-05
2	0	0	1	1	944.253	-0.968475	-0.970076	-0.0837272	5	0.0200263	12	16.596	8.12218e-05
2	0	0	0	1	945.053	-0.928466	-0.930029	-0.0764537	5	0.0199618	12	17.3962	7.11041e-05
2	0	0	1	1	945.853	-0.888457	-0.890069	-0.0699746	5	0.0199025	12	18.1964	6.22822e-05
2	0	0	0	1	946.653	-0.848449	-0.850042	-0.0642142	5	0.0198482	12	18.9966	5.45847e-05
2	0	0	1	1	947.454	-0.80844	-0.809984	-0.0575545	5	0.0197986	12	19.7968	4.66182e-05
2	0	0	0	1	948.254	-0.768431	-0.769982	-0.0518353	5	0.0197538	12	20.597	3.99123e-05
2	0	0	0	1	949.054	-0.728423	-0.72997	-0.0459516	5	0.0197137	12	21.397	3.35433e-05
2	0	0	1	1	949.854	-0.688414	-0.689908	-0.0400454	5	0.0196782	12	22.1972	2.76277e-05
2	0	0	0	1	950.654	-0.648405	-0.649955	-0.0345972	5	0.0196474	12	22.9974	2.24866e-05
2	0	0	1	1	951.454	-0.608397	-0.609861	-0.0288178	5	0.0196211	12	23.7976	1.75748e-05
2	0	0	0	1	952.255	-0.568388	-0.569776	-0.0230316	5	0.0195995	12	24.5978	1.31229e-05
2	0	0	1	1	953.055	-0.52838	-0.529839	-0.017758	5	0.0195824	12	25.398	9.40887e-06
2	0	0	0	1	953.855	-0.488371	-0.489816	-0.0122763	5	0.01957	12	26.1982	6.01311e-06
2	0	0	1	1	954.655	-0.448362	-0.449904	-0.00669151	5	0.0195623	12	26.9984	3.01053e-06
2	0	0	1	1	955.455	-0.408354	-0.409848	-0.000350576	5	0.0195593	12	27.7984	1.43683e-07
2	1	0	0	1	956.255	-0.368345	-0.369889	0.00525444	5	0.0195613	12	0.62	-1.94356e-06
2	1	0	1	1	957.034	-0.329437	-0.330996	0.0102794	6	0.0195681	12	1.3982	-3.40243e-06
2	1	0	0	1	957.834	-0.289428	-0.290948	0.0173726	6	0.0195801	12	2.1984	-5.05453e-06
2	1	0	1	1	958.634	-0.249419	-0.250987	0.0241226	6	0.0195972	12	2.9986	-6.05446e-06
2	1	0	0	1	959.434	-0.209411	-0.211066	0.0308041	6	0.0196195	12	3.7988	-6.50169e-06
2	1	0	1	1	960.234	-0.169402	-0.17101	0.03788	6	0.0196468	12	4.599	-6.47785e-06
2	1	0	1	1	961.034	-0.129393	-0.131064	0.0436237	6	0.0196789	12	5.399	-5.71752e-06
2	1	0	0	1	961.835	-0.0893847	-0.0908845	0.0499534	6	0.0197157	12	6.1992	-4.53998e-06
2	1	0	1	1	962.635	-0.0493761	-0.0507851	0.0556002	6	0.0197571	12	6.9994	-2.82366e-06
2	1	0	0	1	963.435	-0.00936745	-0.01083	0.0606328	6	0.019803	12	7.7996	-6.56657e-07
2	1	0	1	1	964.235	0.0306412	0.0291802	0.0641896	6	0.0198528	12	8.5998	1.87306e-06
2	1	0	0	1	965.035	0.0706498	0.0691246	0.0678918	6	0.0199063	12	9.4	4.69299e-06
2	1	0	1	1	965.836	0.110658	0.109117	0.0725249	6	0.0199636	12	10.2002	7.91368e-06
2	1	0	1	1	966.636	0.150667	0.149075	0.0771926	6	0.0200249	12	11.0002	1.15075e-05
2	1	0	0	1	967.436	0.190676	0.189148	0.0824203	6	0.0200903	12	11.8004	1.55896e-05
2	1	0	1	1	968.236	0.230684	0.229113	0.0874253	6	0.0201598	12	12.6006	2.00303e-05
2	1	0	0	1	969.036	0.270693	0.269131	0.0936643	6	0.0202332	12	13.4008	2.5208e-05
2	1	0	1	1	969.836	0.310702	0.309223	0.0984846	6	0.0203105	12	14.201	3.04537e-05
2	1	0	0	1	970.637	0.35071	0.349247	0.104584	6	0.0203918	12	15.0012	3.65256e-05
2	1	0	1	1	971.437	0.390719	0.389335	0.109369	6	0.0204768	12	15.8014	4.25812e-05
2	1	0	0	1	972.237	0.430727	0.429273	0.114676	6	0.0205656	12	16.6016	4.92272e-05
2	1	0	0	1	973.037	0.470736	0.469265	0.119213	6	0.0206582	12	17.4016	5.59427e-05
2	1	0	1	1	973.837	0.510745	0.50927	0.123687	6	0.0207544	12	18.2018	6.29899e-05
2	1	0	0	1	974.637	0.550753	0.549264	0.128258	6	0.0208543	12	19.002	7.04477e-05
2	1	0	1	1	975.438	0.590762	0.589325	0.13204	6	0.0209577	12	19.8022	7.78145e-05
2	1	0	0	1	976.238	0.630771	0.629361	0.136067	6	0.0210645	12	20.6024	8.5635e-05
2	1	0	1	1	977.038	0.670779	0.669412	0.139632	6	0.0211747	12	21.4026	9.34712e-05
2	1	0	0	1	977.838	0.710788	0.709408	0.143544	6	0.0212882	12	22.2028	0.000101832
2	1	0	0	1	978.638	0.750796	0.749412	0.147534	6	0.0214048	12	23.0028	0.000110564
2	1	0	1	1	979.438	0.790805	0.789388	0.150729	6	0.0215246	12	23.803	0.000118984
2	1	0	0	1	980.239	0.830814	0.82939	0.154078	6	0.0216474	12	24.6032	0.000127791
2	1	0	1	1	981.039	0.870822	0.86933	0.157108	6	0.0217731	12	25.4034	0.000136578
2	1	0	0	1	981.839	0.910831	0.90934	0.160046	6	0.0219016	12	26.2036	0.000145536
2	1	0	1	1	982.639	0.95084	0.949377	0.164158	6	0.0220329	12	27.0038	0.000155847
2	1	0	0	1	983.439	0.990848	0.989414	0.168623	6	0.0221667	12	27.804	0.000166838
2	1	0	0	1	984.214	0.970444	0.969118	0.164563	6	0.0222957	12	28.5786	0.000159481
2	1	0	1	1	985.014	0.930435	0.929097	0.157495	6	0.0224232	12	29.3788	0.000146328
2	1	0	0	1	985.814	0.890427	0.88904	0.148975	6	0.0225452	12	30.179	0.000132445
2	1	0	0	1	986.614	0.850418	0.848983	0.142906	6	0.0226619	12	30.979	0.000121325
2	1	0	1	1	987.415	0.810409	0.808858	0.135853	6	0.0227737	12	31.7792	0.000109886
2	1	0	0	1	988.215	0.770401	0.768981	0.130443	6	0.0228807	12	32.5794	0.000100308
2	1	0	1	1	989.015	0.730392	0.728888	0.124587	6	0.0229831	12	33.3796	9.08096e-05
2	1	0	0	1	989.815	0.690383	0.688848	0.119596	6	0.023081	12	34.1798	8.23834e-05
2	1	0	1	1	990.615	0.650375	0.648925	0.114921	6	0.0231746	12	34.98	7.45753e-05
2	1	0	0	1	991.416	0.610366	0.608953	0.110666	6	0.0232638	12	35.7802	6.73905e-05
2	1	0	0	1	992.216	0.570358	0.568941	0.105026	6	0.023349	12	36.5802	5.97536e-05
2	1	0	1	1	993.016	0.530349	0.528954	0.0995544	6	0.02343	12	37.3804	5.26597e-05
2	1	0	0	1	993.816	0.49034	0.488862	0.0936214	6	0.0235071	12	38.1806	4.5768e-05
2	1	0	1	1	994.616	0.450332	0.448827	0.0885294	6	0.0235802	12	38.9808	3.97344e-05
2	1	0	0	1	995.416	0.410323	0.408805	0.083578	6	0.0236494	12	39.781	3.41671e-05
2	1	0	1	1	996.217	0.370314	0.368835	0.0796711	6	0.0237149	12	40.5812	2.93855e-05
2	1	0	0	1	997.017	0.330306	0.328795	0.0752709	6	0.0237765	12	41.3814	2.47487e-05
2	1	0	1	1	997.817	0.290297	0.288822	0.0711529	6	0.0238344	12	42.1816	2.05505e-05
2	1	0	1	1	998.617	0.250289	0.248761	0.0663579	6	0.0238885	12	42.9816	1.65073e-05
2	1	0	0	1	999.417	0.21028	0.208883	0.0619418	6	0.0239389	12	43.7818	1.29386e-05
2	1	0	1	1	1000.22	0.170271	0.168897	0.0574183	6	0.0239855	12	44.582	9.69776e-06
2	1	0	0	1	1001.02	0.130263	0.128865	0.0519805	6	0.0240284	12	45.3822	6.69847e-06
2	1	0	1	1	1001.82	0.090254	0.0888146	0.047376	6	0.0240675	12	46.1824	4.20768e-06
2	1	0	0	1	1002.62	0.0502454	0.048781	0.0416189	6	0.0241026	12	46.9826	2.03021e-06
2	1	0	1	1	1003.42	0.0102368	0.0087517	0.0359095	6	0.0241336	12	47.7828	3.14269e-07
2	1	0	1	1	1004.22	-0.0297719	-0.0312522	0.0305175	6	0.0241599	12	48.5828	-9.53738e-07
2	1	0	0	1	1005.02	-0.0697805	-0.0712974	0.0229318	6	0.0241809	12	49.383	-1.63498e-06
2	1	0	1	1	1005.82	-0.109789	-0.11132	0.0144857	6	0.0241958	12	50.1832	-1.61255e-06
2	1	0	0	1	1006.62	-0.149798	-0.15135	0.00627667	6	0.0242042	12	50.9834	-9.49972e-07
2	0	0	1	1	1007.42	-0.189806	-0.191333	-0.00129922	6	0.0242066	12	0.02	2.48584e-07
2	0	0	0	1	1008.22	-0.229815	-0.231371	-0.00490045	6	0.0242048	12	0.7202	1.13382e-06
2	0	0	1	1	1009.02	-0.269824	-0.271421	-0.00718701	6	0.0242007	12	1.5204	1.9507e-06
2	0	0	1	1	1009.82	-0.309832	-0.311413	-0.00971833	6	0.0241949	12	2.3204	3.02641e-06
2	0	0	0	1	1010.62	-0.349841	-0.351409	-0.012935	6	0.0241867	12	3.1206	4.54547e-06
2	0	0	1	1	1011.42	-0.38985	-0.391429	-0.016534	6	0.0241756	12	3.9208	6.47188e-06
2	0	0	0	1	1012.22	-0.429858	-0.431437	-0.0199093	6	0.0241615	12	4.721	8.58961e-06
2	0	0	1	1	1013.02	-0.469867	-0.471378	-0.0232772	6	0.0241444	12	5.5212	1.09724e-05
2	0	0	0	1	1013.82	-0.509876	-0.511405	-0.0267383	6	0.0241239	12	6.3214	1.36741e-05
2	0	0	1	1	1014.62	-0.549884	-0.551474	-0.0310339	6	0.0240998	12	7.1216	1.71144e-05
2	0	0	0	1	1015.42	-0.589893	-0.59136	-0.0349812	6	0.024072	12	7.9218	2.06865e-05
2	0	0	0	1	1016.22	-0.629902	-0.631412	-0.0399429	6	0.0240403	12	8.7218	2.52204e-05
2	0	0	1	1	1017.02	-0.66991	-0.671358	-0.0448715	6	0.0240048	12	9.522	3.01249e-05
2	0	0	0	1	1017.82	-0.709919	-0.711361	-0.0504479	6	0.0239652	12	10.3222	3.58867e-05
2	0	0	1	1	1018.62	-0.749927	-0.751483	-0.0568405	6	0.0239216	12	11.1224	4.27146e-05
2	0	0	0	1	1019.42	-0.789936	-0.791508	-0.0628407	6	0.0238738	12	11.9226	4.97389e-05
2	0	0	1	1	1020.22	-0.829945	-0.831564	-0.0679167	6	0.023822	12	12.7228	5.6477e-05
2	0	0	0	1	1021.02	-0.869953	-0.871513	-0.072303	6	0.0237659	12	13.523	6.3013e-05
2	0	0	0	1	1021.82	-0.909962	-0.911496	-0.0773282	6	0.0237056	12	14.323	7.04844e-05
2	0	0	1	1	1022.62	-0.949971	-0.951529	-0.0818164	6	0.0236409	12	15.1232	7.78507e-05
2	0	0	0	1	1023.42	-0.989979	-0.991545	-0.0876845	6	0.0235717	12	15.9234	8.69432e-05
2	0	0	1	0	1024.19	-0.971475	-0.972994	-0.0832424	6	0.0235045	12	16.696	8.09943e-05
2	0	0	0	0	1025	-0.931467	-0.933013	-0.0778869	6	0.023441	12	17.4962	7.26695e-05
2	0	0	1	0	1025.8	-0.891458	-0.893112	-0.0720209	6	0.0233825	12	18.2964	6.43228e-05
2	0	0	0	0	1026.6	-0.851449	-0.85299	-0.0650319	6	0.023329	12	19.0966	5.54715e-05
2	0	0	1	0	1027.4	-0.811441	-0.812904	-0.0580756	6	0.0232801	12	19.8968	4.72099e-05
2	0	0	0	0	1028.2	-0.771432	-0.772925	-0.0522619	6	0.0232359	12	20.697	4.03945e-05
2	0	0	0	0	1029	-0.731424	-0.73293	-0.0470757	6	0.0231962	12	21.497	3.45032e-05
2	0	0	1	0	1029.8	-0.691415	-0.69291	-0.042347	6	0.0231611	12	22.2972	2.93427e-05
2	0	0	0	0	1030.6	-0.651406	-0.652943	-0.03684	6	0.0231305	12	23.0974	2.40544e-05
2	0	0	1	0	1031.4	-0.611398	-0.612945	-0.030578	6	0.0231045	12	23.8976	1.87426e-05
2	0	0	0	0	1032.2	-0.571389	-0.572886	-0.0233633	6	0.0230829	12	24.6978	1.33845e-05
2	0	0	1	0	1033	-0.53138	-0.532856	-0.018053	6	0.0230658	12	25.498	9.61963e-06
2	0	0	0	0	1033.8	-0.491372	-0.492927	-0.0137129	6	0.0230533	12	26.2982	6.75946e-06
2	0	0	0	0	1034.6	-0.451363	-0.452831	-0.00832203	6	0.0230454	12	27.0982	3.76847e-06
2	1	0	1	0	1035.4	-0.411354	-0.413003	-0.00256019	6	0.0230422	12	27.8984	1.05737e-06
2	1	0	0	0	1036.2	-0.371346	-0.372892	0.00440901	6	0.0230438	12	0.56	-1.64409e-06
2	1	0	0	0	1036.48	-0.357092	-0.359102	0.0130726	6	0.0230455	12	0.8438	-4.69439e-06