File: resorufin_10x_frittedTiCt_FTOWE_AgAgClref_N2sparge_3_16_CV_C12/resorufin_10x_frittedTiCt_FTOWE_AgAgClref_N2sparge_3_20_CV_C12.txt
EC-Lab ASCII FILE
Nb header lines : 59

Cyclic Voltammetry

Run on channel : 12 (SN 15159)
User :
CE vs. WE compliance from -10 V to 10 V
Electrode connection : standard
Potential control : Ewe
Ewe ctrl range : min = -2.50 V, max = 2.50 V
Safety Limits :
	Do not start on E overload
Acquisition started on : 06/27/2024 22:37:21.030
Technique started on : 06/28/2024 03:06:28.386
Loaded Setting File :  NONE
Saved on :
	File : resorufin_10x_frittedTiCt_FTOWE_AgAgClref_N2sparge_3_20_CV_C12.mpr
	Directory : C:\Users\user\OneDrive - California Institute of Technology\Desktop\Big James\06272024_resorufin_spEC_test\
	Host : 10.8.34.190
Device : VMP3 (SN 1026)
Address : 131.215.231.69
EC-Lab for windows v11.50 (software)
Internet server v11.52 (firmware)
Command interpretor v11.50 (firmware)
Electrode material : Au/Pd
Initial state :
Electrolyte : NaCl (0.2M)
Comments : Fe(CN)63-/Fe(CN)64- 5.10-3 M
Reference electrode : SCE Saturated Calomel Electrode (0.241 V)
Electrode surface area : 0.001 cm²
Characteristic mass : 0.001 g
Equivalent Weight : 0.000 g/eq.
Density : 0.000 g/cm3
Volume (V) : 0.001 cm³
Cycle Definition : Charge/Discharge alternance
Ei (V)              0.000
vs.                 Eoc
dE/dt               1.000
dE/dt unit          mV/s
E1 (V)              1.000
vs.                 Ref
Step percent        50
N                   10
E range min (V)     -2.500
E range max (V)     2.500
I Range             Auto
I Range min         Unset
I Range max         Unset
I Range init        Unset
Bandwidth           5
E2 (V)              -1.000
vs.                 Ref
nc cycles           5
Reverse Scan        1
Ef (V)              0.000
vs.                 Eoc

mode	ox/red	error	control changes	counter inc.	time/s	control/V	Ewe/V	<I>/mA	cycle number	(Q-Qo)/C	I Range	step time/s	P/W
2	0	0	0	0	16147.4	-0.461215	-0.462198	-0.00672281	1	0.0000000E+000	13	0.000000000000000E+000	3.10727e-06
2	0	0	1	0	16186.9	-0.421657	-0.422716	0.00144394	1	2.68449e-05	13	36.0078	-6.10377e-07
2	0	0	0	0	16226.9	-0.381648	-0.383203	0.00282613	1	0.000113	13	76.0165	-1.08298e-06
2	0	0	1	0	16266.9	-0.341639	-0.343293	0.00404648	1	0.000251856	13	116.025	-1.38913e-06
2	0	0	1	0	16306.9	-0.301631	-0.303277	0.00498646	1	0.000434014	13	156.034	-1.51228e-06
2	1	0	1	0	16346.9	-0.261622	-0.263508	0.00552128	1	0.000646848	13	196.042	-1.4549e-06
2	1	0	1	0	16387	-0.221613	-0.223056	0.00586486	1	0.000877419	13	236.051	-1.30819e-06
2	1	0	1	0	16427	-0.181605	-0.182993	0.0059694	1	0.00111689	13	276.06	-1.09236e-06
2	1	0	1	0	16467	-0.141596	-0.142817	0.00604768	1	0.00135921	13	316.068	-8.63709e-07
2	1	0	1	0	16507	-0.101587	-0.103212	0.00611549	1	0.00160339	13	356.077	-6.31191e-07
2	1	0	1	0	16547	-0.0615788	-0.0632037	0.00628357	1	0.00185248	13	396.086	-3.97145e-07
2	1	0	1	0	16587	-0.0215702	-0.0232243	0.006448	1	0.00210874	13	436.094	-1.4975e-07
2	1	0	1	0	16627	0.0184386	0.0165877	0.00649233	1	0.00237046	13	476.103	1.07693e-07
2	1	0	1	0	16667	0.0584472	0.057592	0.00662257	1	0.00263557	13	516.112	3.81407e-07
2	1	0	1	0	16707	0.0984558	0.0971491	0.00674684	1	0.00290441	13	556.12	6.5545e-07
2	1	0	1	0	16747	0.138464	0.13667	0.00684427	1	0.00317756	13	596.129	9.35407e-07
2	1	0	1	0	16787	0.178473	0.176855	0.00702118	1	0.00345582	13	636.137	1.24173e-06
2	1	0	1	0	16827.1	0.218482	0.217176	0.00719484	1	0.00374035	13	676.146	1.56254e-06
2	1	0	1	0	16867.1	0.25849	0.257138	0.00739221	1	0.00403214	13	716.155	1.90082e-06
2	1	0	1	0	16907.1	0.298499	0.296885	0.00759715	1	0.00433207	13	756.163	2.25548e-06
2	1	0	1	0	16947.1	0.338508	0.337031	0.00782315	1	0.00464092	13	796.172	2.63664e-06
2	1	0	1	0	16987.1	0.378516	0.377036	0.00803304	1	0.00495881	13	836.181	3.02874e-06
2	1	0	1	0	17027.1	0.418525	0.417599	0.00822503	1	0.00528545	13	876.189	3.43477e-06
2	1	0	1	0	17067.1	0.458533	0.457191	0.00850046	1	0.00562086	13	916.198	3.88634e-06
2	1	0	1	0	17107.1	0.498542	0.497147	0.00875868	1	0.00596619	13	956.207	4.35435e-06
2	0	0	1	0	17147.1	0.538551	0.536292	0.00907636	1	0.00632319	13	996.215	4.86757e-06
2	1	0	1	0	17187.1	0.578559	0.576982	0.0093721	1	0.00669275	13	1036.22	5.40753e-06
2	1	0	1	0	17227.1	0.618568	0.616968	0.00968641	1	0.00707466	13	1076.23	5.9762e-06
2	1	0	1	0	17267.1	0.658577	0.657197	0.00999835	1	0.00746914	13	1116.24	6.57088e-06
2	1	0	1	0	17307.2	0.698585	0.697184	0.010335	1	0.00787623	13	1156.25	7.2054e-06
2	1	0	1	0	17347.2	0.738594	0.736987	0.0106536	1	0.00829669	13	1196.26	7.85157e-06
2	1	0	1	0	17387.2	0.778602	0.777058	0.0110031	1	0.00873019	13	1236.27	8.55008e-06
2	1	0	1	0	17427.2	0.818611	0.817087	0.0113407	1	0.00917764	13	1276.28	9.2663e-06
2	1	0	1	0	17467.2	0.85862	0.857198	0.0117112	1	0.00963895	13	1316.28	1.00388e-05
2	1	0	1	0	17507.2	0.898628	0.89789	0.0121965	1	0.0101164	13	1356.29	1.09511e-05
2	0	0	1	0	17547.2	0.938637	0.936514	0.0126639	1	0.0106123	13	1396.3	1.18599e-05
2	1	0	1	0	17587.2	0.978646	0.97692	0.0131122	1	0.011128	13	1436.31	1.28096e-05
2	1	0	1	0	17626.1	0.982446	0.980953	0.0131462	1	0.011644	13	1475.22	1.28958e-05
2	1	0	1	0	17666.1	0.942438	0.941396	0.0128493	1	0.0121629	13	1515.23	1.20962e-05
2	1	0	1	0	17706.1	0.902429	0.901095	0.0126072	1	0.0126709	13	1555.24	1.13603e-05
2	1	0	1	0	17746.2	0.862421	0.860902	0.0123314	1	0.0131691	13	1595.24	1.06161e-05
2	1	0	1	0	17786.2	0.822412	0.821195	0.0121605	1	0.0136589	13	1635.25	9.98614e-06
2	1	0	1	0	17826.2	0.782403	0.780661	0.011827	1	0.0141365	13	1675.26	9.2329e-06
2	1	0	1	0	17866.2	0.742395	0.739966	0.0116537	1	0.0146066	13	1715.27	8.62336e-06
2	1	0	1	0	17906.2	0.702386	0.701042	0.0114728	1	0.0150702	13	1755.28	8.04293e-06
2	1	0	1	0	17946.2	0.662377	0.660745	0.0112759	1	0.0155254	13	1795.29	7.45049e-06
2	1	0	1	0	17986.2	0.622369	0.620864	0.0110556	1	0.0159722	13	1835.3	6.86401e-06
2	1	0	1	0	18026.2	0.58236	0.580528	0.0107968	1	0.0164086	13	1875.31	6.26782e-06
2	1	0	1	0	18066.2	0.542352	0.540891	0.0105357	1	0.0168344	13	1915.31	5.69869e-06
2	1	0	1	0	18106.2	0.502343	0.500931	0.0102103	1	0.0172488	13	1955.32	5.11465e-06
2	1	0	0	0	18146.2	0.462334	0.460697	0.0098726	1	0.0176505	13	1995.33	4.54828e-06
2	1	0	1	0	18186.2	0.422326	0.421448	0.00952895	1	0.0180391	13	2035.34	4.01596e-06
2	1	0	1	0	18226.3	0.382317	0.381185	0.00923721	1	0.0184142	13	2075.35	3.52108e-06
2	1	0	1	0	18266.3	0.342308	0.340806	0.00886806	1	0.0187754	13	2115.36	3.02229e-06
2	1	0	1	0	18306.3	0.3023	0.300984	0.00850768	1	0.0191224	13	2155.37	2.56068e-06
2	1	0	1	0	18346.3	0.262291	0.260749	0.00812783	1	0.0194545	13	2195.37	2.11932e-06
2	1	0	1	0	18386.3	0.222282	0.220996	0.00775049	1	0.0197716	13	2235.38	1.71283e-06
2	1	0	1	0	18426.3	0.182274	0.180629	0.00733896	1	0.0200728	13	2275.39	1.32562e-06
2	1	0	1	0	18466.3	0.142265	0.140913	0.0069313	1	0.0203576	13	2315.4	9.76713e-07
2	1	0	1	0	18506.3	0.102257	0.100778	0.00650396	1	0.0206256	13	2355.41	6.55456e-07
2	1	0	1	0	18546.3	0.0622481	0.0606087	0.00603971	1	0.0208759	13	2395.42	3.66059e-07
2	1	0	1	0	18586.3	0.0222393	0.0208688	0.00555509	1	0.0211077	13	2435.43	1.15928e-07
2	1	0	1	0	18626.3	-0.0177693	-0.0193673	0.00503733	1	0.0213194	13	2475.43	-9.75596e-08
2	1	0	1	0	18666.4	-0.0577779	-0.0594942	0.00443539	1	0.0215083	13	2515.44	-2.6388e-07
2	0	0	1	0	18706.4	-0.0977865	-0.0998333	0.00377731	1	0.0216706	13	2555.45	-3.77101e-07
2	0	0	1	0	18746.4	-0.137795	-0.139733	0.00294218	1	0.0218013	13	2595.46	-4.11119e-07
2	0	0	1	0	18786.4	-0.177804	-0.179672	0.00229036	1	0.0219005	13	2635.47	-4.11515e-07
2	0	0	1	0	18826.4	-0.217813	-0.219849	0.00199721	1	0.0219835	13	2675.48	-4.39086e-07
2	1	0	1	0	18866.4	-0.257821	-0.259171	0.00149099	1	0.0220518	13	2715.49	-3.86421e-07
2	0	0	1	0	18906.4	-0.29783	-0.29922	0.000898505	1	0.0220973	13	2755.5	-2.68851e-07
2	0	0	1	0	18946.4	-0.337838	-0.338404	0.000332812	1	0.0221191	13	2795.5	-1.12625e-07
2	1	0	1	0	18986.4	-0.377847	-0.379045	-0.000416412	1	0.0221155	13	24.0051	1.57839e-07
2	0	0	1	0	19026.4	-0.417856	-0.419554	-0.00130274	1	0.0220804	13	64.0138	5.46572e-07
2	0	0	1	0	19066.4	-0.457864	-0.458587	-0.00240928	1	0.0220045	13	104.022	1.10487e-06
2	0	0	1	0	19106.4	-0.497873	-0.499322	-0.00386297	1	0.0218776	13	144.031	1.92887e-06
2	0	0	1	0	19146.5	-0.537882	-0.539613	-0.00549447	1	0.0216902	13	184.04	2.96488e-06
2	0	0	1	0	19186.5	-0.57789	-0.579243	-0.00732112	1	0.0214335	13	224.048	4.24071e-06
2	0	0	1	0	19226.5	-0.617899	-0.619556	-0.00935733	1	0.0210993	13	264.057	5.79739e-06
2	0	0	1	0	19266.5	-0.657908	-0.659464	-0.0115771	1	0.0206799	13	304.066	7.63465e-06
2	0	0	1	0	19306.5	-0.697916	-0.699495	-0.0138781	1	0.0201692	13	344.074	9.70767e-06
2	0	0	1	0	19346.5	-0.737925	-0.739322	-0.0163853	1	0.0195624	13	384.083	1.2114e-05
2	0	0	1	0	19386.5	-0.777933	-0.779078	-0.0189201	1	0.0188558	13	424.091	1.47402e-05
2	0	0	1	0	19426.5	-0.817942	-0.819331	-0.0215543	1	0.0180457	13	464.1	1.76601e-05
2	0	0	1	0	19466.5	-0.857951	-0.859554	-0.0243437	1	0.0171271	13	504.109	2.09247e-05
2	0	0	1	0	19506.5	-0.897959	-0.899416	-0.0274416	1	0.0160914	13	544.117	2.46815e-05
2	0	0	1	0	19546.5	-0.937968	-0.93951	-0.0309689	1	0.0149232	13	584.126	2.90956e-05
2	0	0	1	0	19586.5	-0.977977	-0.979709	-0.0354815	1	0.013595	13	624.135	3.47615e-05
2	0	0	1	1	19625.2	-0.983478	-0.98479	-0.0365069	1	0.0121591	13	662.744	3.59516e-05
2	0	0	1	1	19665.2	-0.943469	-0.945904	-0.032137	1	0.010789	13	702.752	3.03985e-05
2	0	0	1	1	19705.2	-0.903461	-0.904504	-0.0280942	1	0.00958685	13	742.761	2.54113e-05
2	0	0	1	1	19745.2	-0.863452	-0.864905	-0.0244083	1	0.00853773	13	782.77	2.11109e-05
2	0	0	1	1	19785.2	-0.823443	-0.825536	-0.0209226	1	0.00763217	13	822.778	1.72724e-05
2	0	0	1	1	19825.2	-0.783435	-0.784449	-0.0177215	1	0.00686047	13	862.787	1.39016e-05
2	0	0	1	1	19865.2	-0.743426	-0.745104	-0.0147467	1	0.00621324	13	902.795	1.09878e-05
2	0	0	1	1	19905.2	-0.703417	-0.705017	-0.0120059	1	0.00568034	13	942.804	8.46435e-06
2	0	0	1	1	19945.2	-0.663409	-0.664778	-0.00931399	1	0.00525577	13	982.813	6.19173e-06
2	0	0	1	1	19985.2	-0.6234	-0.624951	-0.00681436	1	0.00493399	13	1022.82	4.25864e-06
2	0	0	1	1	20025.2	-0.583391	-0.584793	-0.00444699	1	0.00470992	13	1062.83	2.60057e-06
2	0	0	1	1	20065.3	-0.543383	-0.545185	-0.00217778	1	0.00457862	13	1102.84	1.1873e-06
2	1	0	1	1	20105.3	-0.503374	-0.505192	-6.27661e-05	1	0.00453498	13	1142.85	3.17089e-08
2	1	0	1	1	20145.3	-0.463365	-0.464833	0.00193461	1	0.00457416	13	38.0082	-8.99271e-07
2	1	0	1	1	20184.1	-0.424557	-0.426225	0.00365802	2	0.00468462	13	76.8166	-1.55914e-06
2	1	0	1	1	20224.1	-0.384548	-0.385979	0.00515853	2	0.00486291	13	116.825	-1.99108e-06
2	0	0	1	1	20264.1	-0.34454	-0.346596	0.00648539	2	0.00509697	13	156.834	-2.24781e-06
2	1	0	1	1	20304.1	-0.304531	-0.305943	0.00750532	2	0.00537873	13	196.842	-2.2962e-06
2	1	0	1	1	20344.1	-0.264523	-0.265936	0.0083448	2	0.00569884	13	236.851	-2.21918e-06
2	1	0	1	1	20384.1	-0.224514	-0.225826	0.00875661	2	0.00604465	13	276.86	-1.97747e-06
2	1	0	1	1	20424.1	-0.184505	-0.18603	0.0088634	2	0.00640072	13	316.868	-1.64886e-06
2	1	0	1	1	20464.1	-0.144497	-0.146225	0.00870053	2	0.00675398	13	356.877	-1.27223e-06
2	1	0	1	1	20504.1	-0.104488	-0.106079	0.00850839	2	0.00709973	13	396.886	-9.0256e-07
2	1	0	0	1	20544.2	-0.0644794	-0.0658043	0.00850059	2	0.0074423	13	436.894	-5.59375e-07
2	1	0	1	1	20584.2	-0.0244706	-0.0257452	0.0085926	2	0.00778573	13	476.903	-2.21218e-07
2	1	0	1	1	20624.2	0.0155379	0.013883	0.00867442	2	0.00813173	13	516.912	1.20427e-07
2	1	0	1	1	20664.2	0.0555465	0.0542688	0.00870483	2	0.00848007	13	556.92	4.724e-07
2	1	0	1	1	20704.2	0.0955551	0.0940221	0.00878526	2	0.00883093	13	596.929	8.26009e-07
2	0	0	0	1	20744.2	0.135564	0.134616	0.00894198	2	0.00918494	13	636.937	1.20373e-06
2	1	0	1	1	20784.2	0.175572	0.174089	0.00901603	2	0.00954344	13	676.946	1.5696e-06
2	1	0	1	1	20824.2	0.215581	0.214076	0.0091904	2	0.00990807	13	716.955	1.96745e-06
2	1	0	1	1	20864.2	0.25559	0.254713	0.00936784	2	0.0102796	13	756.963	2.38611e-06
2	1	0	1	1	20904.2	0.295598	0.293961	0.00953535	2	0.0106579	13	796.972	2.80302e-06
2	1	0	1	1	20944.2	0.335607	0.334284	0.00970697	2	0.0110431	13	836.981	3.24488e-06
2	1	0	1	1	20984.3	0.375616	0.374233	0.00988648	2	0.0114356	13	876.989	3.69984e-06
2	1	0	1	1	21024.3	0.415624	0.41471	0.0101502	2	0.0118368	13	916.998	4.20937e-06
2	1	0	1	1	21064.3	0.455633	0.454412	0.0102863	2	0.0122447	13	957.007	4.67421e-06
2	0	0	1	1	21104.3	0.495641	0.494247	0.0105114	2	0.0126596	13	997.015	5.19521e-06
2	1	0	0	1	21144.3	0.53565	0.534498	0.0106803	2	0.0130826	13	1037.02	5.70862e-06
2	1	0	1	1	21184.3	0.575659	0.574311	0.0108995	2	0.013514	13	1077.03	6.25972e-06
2	1	0	1	1	21224.3	0.615667	0.614476	0.0111326	2	0.0139547	13	1117.04	6.84073e-06
2	1	0	1	1	21264.3	0.655676	0.654365	0.0113893	2	0.0144052	13	1157.05	7.45277e-06
2	1	0	1	1	21304.3	0.695684	0.693999	0.0116593	2	0.0148666	13	1197.06	8.09153e-06
2	1	0	0	1	21344.3	0.735693	0.734107	0.011945	2	0.0153391	13	1237.07	8.76887e-06
2	1	0	1	1	21384.3	0.775702	0.77438	0.0123053	2	0.0158247	13	1277.08	9.529e-06
2	1	0	1	1	21424.3	0.81571	0.814412	0.0127164	2	0.0163256	13	1317.08	1.03564e-05
2	1	0	1	1	21464.4	0.855719	0.854244	0.0130858	2	0.0168421	13	1357.09	1.11785e-05
2	1	0	1	1	21504.4	0.895728	0.894221	0.0134632	2	0.0173734	13	1397.1	1.20391e-05
2	0	0	1	1	21544.4	0.935736	0.933712	0.0138809	2	0.0179203	13	1437.11	1.29608e-05
2	1	0	1	1	21584.4	0.975745	0.974433	0.0142461	2	0.018483	13	1477.12	1.38819e-05
2	1	0	1	1	21623.2	0.985447	0.984416	0.0143887	2	0.0190422	13	1515.93	1.41645e-05
2	1	0	1	1	21663.2	0.945438	0.94421	0.0140866	2	0.0196106	13	1555.94	1.33007e-05
2	1	0	1	1	21703.2	0.90543	0.903825	0.0137694	2	0.0201674	13	1595.94	1.24452e-05
2	1	0	1	1	21743.2	0.865421	0.864326	0.0135043	2	0.0207133	13	1635.95	1.16721e-05
2	1	0	1	1	21783.2	0.825413	0.824355	0.0132242	2	0.0212476	13	1675.96	1.09015e-05
2	1	0	1	1	21823.2	0.785404	0.783876	0.0128101	2	0.0217679	13	1715.97	1.00415e-05
2	1	0	1	1	21863.2	0.745395	0.743786	0.0124489	2	0.0222739	13	1755.98	9.25934e-06
2	1	0	1	1	21903.2	0.705387	0.703828	0.0120428	2	0.0227648	13	1795.99	8.47606e-06
2	1	0	1	1	21943.3	0.665378	0.663648	0.0117015	2	0.0232406	13	1836	7.76565e-06
2	1	0	1	1	21983.3	0.625369	0.623868	0.0113466	2	0.0237015	13	1876.01	7.07876e-06
2	1	0	1	1	22023.3	0.585361	0.584094	0.010976	2	0.0241474	13	1916.01	6.41104e-06
2	1	0	1	1	22063.3	0.545352	0.544166	0.0106081	2	0.0245782	13	1956.02	5.77257e-06
2	1	0	1	1	22103.3	0.505343	0.503969	0.0101874	2	0.0249936	13	1996.03	5.13415e-06
2	1	0	1	1	22143.3	0.465335	0.463726	0.00980864	2	0.0253933	13	2036.04	4.54852e-06
2	1	0	1	1	22183.3	0.425326	0.423694	0.00937743	2	0.0257771	13	2076.05	3.97316e-06
2	0	0	1	1	22223.3	0.385318	0.383347	0.00901927	2	0.0261448	13	2116.06	3.45751e-06
2	1	0	1	1	22263.3	0.345309	0.343936	0.0085721	2	0.0264956	13	2156.07	2.94826e-06
2	0	0	1	1	22303.3	0.3053	0.303744	0.00816497	2	0.026829	13	2196.07	2.48006e-06
2	1	0	1	1	22343.3	0.265292	0.263497	0.00764359	2	0.0271444	13	2236.08	2.01406e-06
2	1	0	1	1	22383.4	0.225283	0.22403	0.00720883	2	0.0274412	13	2276.09	1.61499e-06
2	1	0	1	1	22423.4	0.185275	0.183623	0.00668451	2	0.027719	13	2316.1	1.22743e-06
2	1	0	1	1	22463.4	0.145266	0.143583	0.00619784	2	0.0279768	13	2356.11	8.89904e-07
2	1	0	1	1	22503.4	0.105257	0.103856	0.00568294	2	0.0282141	13	2396.12	5.90208e-07
2	1	0	1	1	22543.4	0.0652486	0.0636813	0.00516418	2	0.0284309	13	2436.13	3.28862e-07
2	0	0	1	1	22583.4	0.02524	0.0236351	0.00463259	2	0.0286261	13	2476.13	1.09492e-07
2	1	0	1	1	22623.4	-0.0147686	-0.0160876	0.00397615	2	0.0287968	13	2516.14	-6.39666e-08
2	0	0	1	1	22663.4	-0.0547772	-0.0566198	0.0033171	2	0.0289408	13	2556.15	-1.87813e-07
2	1	0	1	1	22703.4	-0.0947858	-0.0961907	0.00254401	2	0.0290567	13	2596.16	-2.4471e-07
2	1	0	1	1	22743.4	-0.134795	-0.135908	0.0017146	2	0.0291412	13	2636.17	-2.33029e-07
2	1	0	1	1	22783.4	-0.174803	-0.176388	0.00113938	2	0.0291953	13	2676.18	-2.00974e-07
2	1	0	1	1	22823.4	-0.214812	-0.21623	0.00103187	2	0.0292366	13	2716.19	-2.23122e-07
2	1	0	1	1	22863.5	-0.25482	-0.256123	0.000766039	2	0.0292717	13	2756.2	-1.96201e-07
2	0	0	1	1	22903.5	-0.294829	-0.296475	0.000413583	2	0.0292931	13	2796.2	-1.22617e-07
2	1	0	1	1	22943.5	-0.334838	-0.33626	7.63739e-06	2	0.0292998	13	0.000000000000000E+000	-2.56815e-09
2	0	0	1	1	22983.5	-0.374846	-0.375339	-0.000383149	2	0.0292903	13	40.0086	1.43811e-07
2	1	0	1	1	23023.5	-0.414855	-0.416676	-0.00110771	2	0.0292594	13	80.0172	4.61558e-07
2	0	0	1	1	23063.5	-0.454864	-0.45645	-0.00195833	2	0.0291983	13	120.026	8.9388e-07
2	0	0	1	1	23103.5	-0.494872	-0.496252	-0.00309848	2	0.0290967	13	160.034	1.53762e-06
2	0	0	0	1	23143.5	-0.534881	-0.536393	-0.00447235	2	0.0289448	13	200.043	2.39894e-06
2	0	0	1	1	23183.5	-0.57489	-0.576634	-0.00607526	2	0.0287335	13	240.052	3.5032e-06
2	0	0	1	1	23223.5	-0.614898	-0.616301	-0.00790038	2	0.0284539	13	280.06	4.86902e-06
2	1	0	1	1	23263.5	-0.654907	-0.655864	-0.00994266	2	0.0280977	13	320.069	6.52103e-06
2	0	0	1	1	23303.6	-0.694916	-0.696244	-0.0121095	2	0.0276572	13	360.078	8.43119e-06
2	0	0	1	1	23343.6	-0.734924	-0.737599	-0.0144702	2	0.0271264	13	400.086	1.06732e-05
2	0	0	1	1	23383.6	-0.774933	-0.777034	-0.0168317	2	0.0265001	13	440.095	1.30788e-05
2	0	0	1	1	23423.6	-0.814942	-0.816384	-0.019402	2	0.0257739	13	480.104	1.58395e-05
2	0	0	1	1	23463.6	-0.85495	-0.856097	-0.022174	2	0.0249427	13	520.112	1.89831e-05
2	0	0	1	1	23503.6	-0.894959	-0.896646	-0.0251404	2	0.0239976	13	560.121	2.25421e-05
2	0	0	1	1	23543.6	-0.934967	-0.936646	-0.0284924	2	0.0229253	13	600.129	2.66873e-05
2	0	0	1	1	23583.6	-0.974976	-0.976121	-0.0329841	2	0.0216978	13	640.138	3.21964e-05
2	0	0	1	0	23622.2	-0.986479	-0.988076	-0.0344907	2	0.0203539	13	678.747	3.40794e-05
2	0	0	1	0	23662.2	-0.94647	-0.947425	-0.0303955	2	0.0190611	13	718.756	2.87975e-05
2	0	0	1	0	23702.2	-0.906461	-0.907549	-0.0265758	2	0.0179262	13	758.764	2.41188e-05
2	0	0	1	0	23742.2	-0.866453	-0.868091	-0.0230695	2	0.0169359	13	798.773	2.00264e-05
2	0	0	1	0	23782.3	-0.826444	-0.828479	-0.0198052	2	0.0160781	13	838.782	1.64082e-05
2	0	0	1	0	23822.3	-0.786435	-0.787716	-0.0166956	2	0.0153498	13	878.79	1.31514e-05
2	0	0	1	0	23862.3	-0.746427	-0.748092	-0.0138935	2	0.0147389	13	918.799	1.03936e-05
2	0	0	1	0	23902.3	-0.706418	-0.707958	-0.0112008	2	0.014237	13	958.808	7.92967e-06
2	0	0	1	0	23942.3	-0.666409	-0.668223	-0.00870395	2	0.0138404	13	998.816	5.81618e-06
2	0	0	1	0	23982.3	-0.626401	-0.628078	-0.00626557	2	0.0135427	13	1038.82	3.93527e-06
2	0	0	1	0	24022.3	-0.586392	-0.587375	-0.0039552	2	0.0133388	13	1078.83	2.32319e-06
2	0	0	1	0	24062.3	-0.546383	-0.547736	-0.00182506	2	0.0132238	13	1118.84	9.99652e-07
2	0	0	1	0	24102.3	-0.506375	-0.506966	0.000262626	2	0.0131929	13	4.001	-1.33142e-07
2	1	0	1	0	24142.3	-0.466366	-0.467782	0.00209277	2	0.0132406	13	44.0096	-9.78959e-07
2	1	0	1	0	24181.1	-0.427558	-0.429435	0.00364396	3	0.0133542	13	82.818	-1.56485e-06
2	1	0	1	0	24221.2	-0.387549	-0.388159	0.00502066	3	0.0135289	13	122.827	-1.94881e-06
2	1	0	1	0	24261.2	-0.347541	-0.349081	0.00606552	3	0.0137515	13	162.835	-2.11736e-06
2	1	0	1	0	24301.2	-0.307532	-0.309072	0.00697173	3	0.0140142	13	202.844	-2.15477e-06
2	0	0	1	0	24341.2	-0.267523	-0.269138	0.00768635	3	0.0143093	13	242.853	-2.06869e-06
2	0	0	1	0	24381.2	-0.227515	-0.228824	0.00813657	3	0.0146265	13	282.861	-1.86184e-06
2	1	0	1	0	24421.2	-0.187506	-0.188829	0.00825182	3	0.0149548	13	322.87	-1.55819e-06
2	1	0	1	0	24461.2	-0.147497	-0.149061	0.00824918	3	0.0152864	13	362.878	-1.22963e-06
2	1	0	1	0	24501.2	-0.107489	-0.108378	0.00822996	3	0.0156177	13	402.887	-8.91946e-07
2	1	0	1	0	24541.2	-0.06748	-0.068911	0.00820727	3	0.0159478	13	442.896	-5.65571e-07
2	0	0	1	0	24581.2	-0.0274714	-0.0291226	0.00821288	3	0.0162766	13	482.904	-2.39181e-07
2	0	0	1	0	24621.2	0.0125373	0.0110616	0.00806266	3	0.0166019	13	522.913	8.91858e-08
2	1	0	1	0	24661.2	0.0525458	0.0509317	0.00786768	3	0.0169205	13	562.922	4.00714e-07
2	1	0	1	0	24701.3	0.0925546	0.0912381	0.00768932	3	0.017232	13	602.93	7.01559e-07
2	1	0	1	0	24741.3	0.132563	0.131728	0.00756241	3	0.0175375	13	642.939	9.9618e-07
2	1	0	1	0	24781.3	0.172572	0.171247	0.00751336	3	0.0178393	13	682.948	1.28664e-06
2	1	0	1	0	24821.3	0.21258	0.210967	0.00744644	3	0.0181391	13	722.956	1.57095e-06
2	1	0	1	0	24861.3	0.252589	0.250811	0.00745004	3	0.0184381	13	762.965	1.86855e-06
2	1	0	1	0	24901.3	0.292598	0.290585	0.00748784	3	0.0187377	13	802.974	2.17585e-06
2	1	0	1	0	24941.3	0.332606	0.330803	0.00756619	3	0.019039	13	842.982	2.50291e-06
2	0	0	1	0	24981.3	0.372615	0.37092	0.00764451	3	0.0193428	13	882.991	2.8355e-06
2	1	0	1	0	25021.3	0.412623	0.411131	0.00769814	3	0.0196498	13	922.999	3.16494e-06
2	0	0	0	0	25061.3	0.452632	0.450945	0.0078275	3	0.0199605	13	963.008	3.52977e-06
2	1	0	1	0	25101.3	0.492641	0.491028	0.00790774	3	0.0202753	13	1003.02	3.88292e-06
2	1	0	1	0	25141.3	0.532649	0.531444	0.00800408	3	0.0205943	13	1043.03	4.25372e-06
2	1	0	1	0	25181.4	0.572658	0.571333	0.00811971	3	0.020917	13	1083.03	4.63906e-06
2	1	0	1	0	25221.4	0.612667	0.611186	0.00822117	3	0.0212439	13	1123.04	5.02467e-06
2	1	0	1	0	25261.4	0.652675	0.650539	0.00827474	3	0.0215753	13	1163.05	5.38305e-06
2	1	0	1	0	25301.4	0.692684	0.691569	0.00847986	3	0.0219113	13	1203.06	5.86441e-06
2	1	0	1	0	25341.4	0.732693	0.731417	0.00856641	3	0.0222519	13	1243.07	6.26562e-06
2	1	0	1	0	25381.4	0.772701	0.771391	0.00866983	3	0.0225968	13	1283.08	6.68783e-06
2	1	0	1	0	25421.4	0.81271	0.811063	0.0087812	3	0.0229467	13	1323.09	7.1221e-06
2	1	0	1	0	25461.4	0.852718	0.851282	0.0089148	3	0.0233017	13	1363.09	7.58901e-06
2	1	0	1	0	25501.4	0.892727	0.891177	0.00908493	3	0.0236623	13	1403.1	8.09628e-06
2	1	0	1	0	25541.4	0.932736	0.931673	0.00926562	3	0.02403	13	1443.11	8.63253e-06
2	1	0	1	0	25581.4	0.972744	0.970993	0.00948078	3	0.0244058	13	1483.12	9.20576e-06
2	1	0	1	0	25620.3	0.988448	0.987251	0.00952968	3	0.0247772	13	1521.93	9.40819e-06
2	1	0	1	0	25660.3	0.948439	0.946689	0.00919177	3	0.0251513	13	1561.94	8.70175e-06
2	1	0	1	0	25700.3	0.90843	0.907118	0.00893259	3	0.0255134	13	1601.95	8.10292e-06
2	1	0	1	0	25740.3	0.868422	0.866886	0.00866793	3	0.0258644	13	1641.95	7.51411e-06
2	1	0	1	0	25780.3	0.828413	0.827637	0.0084304	3	0.0262066	13	1681.96	6.97731e-06
2	1	0	1	0	25820.3	0.788405	0.786247	0.00812419	3	0.0265373	13	1721.97	6.38762e-06
2	1	0	1	0	25860.3	0.748396	0.746898	0.0078538	3	0.0268569	13	1761.98	5.86599e-06
2	1	0	1	0	25900.3	0.708387	0.707034	0.00759967	3	0.0271654	13	1801.99	5.37323e-06
2	1	0	1	0	25940.3	0.668379	0.666745	0.00732437	3	0.027463	13	1842	4.88349e-06
2	1	0	1	0	25980.3	0.62837	0.627058	0.00705911	3	0.0277499	13	1882.01	4.42647e-06
2	1	0	1	0	26020.3	0.588361	0.586884	0.00678172	3	0.0280262	13	1922.02	3.98008e-06
2	1	0	1	0	26060.3	0.548353	0.546808	0.00653135	3	0.028292	13	1962.02	3.57139e-06
2	1	0	1	0	26100.4	0.508344	0.507259	0.00628895	3	0.0285474	13	2002.03	3.19013e-06
2	0	0	1	0	26140.4	0.468336	0.466263	0.00602774	3	0.0287924	13	2042.04	2.81051e-06
2	1	0	1	0	26180.4	0.428327	0.42682	0.00573286	3	0.0290268	13	2082.05	2.4469e-06
2	0	0	1	0	26220.4	0.388318	0.386516	0.00548231	3	0.0292507	13	2122.06	2.119e-06
2	1	0	1	0	26260.4	0.34831	0.346534	0.00522387	3	0.0294641	13	2162.07	1.81025e-06
2	1	0	1	0	26300.4	0.308301	0.306743	0.0049179	3	0.0296665	13	2202.08	1.50853e-06
2	1	0	1	0	26340.4	0.268292	0.266722	0.00464492	3	0.029858	13	2242.08	1.2389e-06
2	1	0	1	0	26380.4	0.228284	0.227464	0.004361	3	0.0300385	13	2282.09	9.91968e-07
2	1	0	1	0	26420.4	0.188275	0.186644	0.00413365	3	0.0302083	13	2322.1	7.7152e-07
2	1	0	1	0	26460.4	0.148266	0.146865	0.0038806	3	0.0303678	13	2362.11	5.69923e-07
2	1	0	1	0	26500.4	0.108258	0.106608	0.00359582	3	0.0305168	13	2402.12	3.83344e-07
2	1	0	1	0	26540.5	0.0682493	0.0665589	0.00333802	3	0.0306552	13	2442.13	2.22175e-07
2	1	0	1	0	26580.5	0.0282407	0.0270443	0.00306833	3	0.0307824	13	2482.14	8.29808e-08
2	1	0	1	0	26620.5	-0.0117679	-0.013194	0.00272396	3	0.0308973	13	2522.14	-3.594e-08
2	1	0	1	0	26660.5	-0.0517767	-0.0533201	0.00233686	3	0.0309977	13	2562.15	-1.24602e-07
2	1	0	1	0	26700.5	-0.0917853	-0.0932348	0.00180753	3	0.03108	13	2602.16	-1.68525e-07
2	1	0	1	0	26740.5	-0.131794	-0.133265	0.00117063	3	0.0311391	13	2642.17	-1.56004e-07
2	0	0	1	0	26780.5	-0.171803	-0.173536	0.000704256	3	0.031173	13	2682.18	-1.22214e-07
2	0	0	1	0	26820.5	-0.211811	-0.213387	0.000719308	3	0.0311975	13	2722.19	-1.53491e-07
2	1	0	1	0	26860.5	-0.25182	-0.253811	0.000515231	3	0.0312208	13	2762.2	-1.30771e-07
2	1	0	1	0	26900.5	-0.291829	-0.293357	0.000235996	3	0.0312341	13	2802.21	-6.92312e-08
2	0	0	1	0	26940.5	-0.331837	-0.333315	-4.46852e-05	3	0.031236	13	12.0026	1.48943e-08
2	0	0	1	0	26980.5	-0.371846	-0.373215	-0.000353745	3	0.0312262	13	52.0112	1.32023e-07
2	0	0	1	0	27020.6	-0.411854	-0.41327	-0.000842504	3	0.0312008	13	92.0198	3.48181e-07
2	0	0	0	0	27060.6	-0.451863	-0.453506	-0.00148338	3	0.0311536	13	132.028	6.72723e-07
2	0	0	1	0	27100.6	-0.491872	-0.493513	-0.00233221	3	0.0310766	13	172.037	1.15098e-06
2	1	0	1	0	27140.6	-0.53188	-0.533225	-0.00334539	3	0.0309631	13	212.046	1.78385e-06
2	1	0	1	0	27180.6	-0.571889	-0.572808	-0.0044905	3	0.0308069	13	252.054	2.5722e-06
2	0	0	1	0	27220.6	-0.611898	-0.613599	-0.00575029	3	0.030602	13	292.063	3.52837e-06
2	0	0	1	0	27260.6	-0.651906	-0.653092	-0.00720887	3	0.0303424	13	332.072	4.70805e-06
2	0	0	1	0	27300.6	-0.691915	-0.693567	-0.00879065	3	0.0300217	13	372.08	6.09691e-06
2	0	0	1	0	27340.6	-0.731924	-0.732501	-0.0104923	3	0.0296345	13	412.089	7.68559e-06
2	0	0	1	0	27380.6	-0.771932	-0.773102	-0.0123714	3	0.0291755	13	452.098	9.56437e-06
2	0	0	1	0	27420.6	-0.811941	-0.813233	-0.0143542	3	0.02864	13	492.106	1.16733e-05
2	0	0	1	0	27460.7	-0.851949	-0.853653	-0.0164493	3	0.0280228	13	532.115	1.4042e-05
2	0	0	1	0	27500.7	-0.891958	-0.893864	-0.0188245	3	0.027318	13	572.123	1.68266e-05
2	0	0	1	0	27540.7	-0.931967	-0.933496	-0.0217059	3	0.0265089	13	612.132	2.02624e-05
2	0	0	1	0	27580.7	-0.971976	-0.973967	-0.0255676	3	0.0255675	13	652.141	2.49019e-05
2	0	0	1	1	27619.3	-0.989479	-0.991071	-0.0277131	3	0.0245077	13	690.75	2.74656e-05
2	0	0	1	1	27659.3	-0.949471	-0.951182	-0.0241115	3	0.0234746	13	730.758	2.29344e-05
2	0	0	1	1	27699.3	-0.909462	-0.910635	-0.0210275	3	0.0225737	13	770.767	1.91484e-05
2	0	0	1	1	27739.3	-0.869453	-0.87098	-0.0181618	3	0.0217911	13	810.776	1.58185e-05
2	0	0	1	1	27779.3	-0.829445	-0.830849	-0.0155221	3	0.0211191	13	850.784	1.28965e-05
2	0	0	1	1	27819.3	-0.789436	-0.79102	-0.013084	3	0.0205492	13	890.793	1.03497e-05
2	0	0	1	1	27859.3	-0.749427	-0.750712	-0.0108798	3	0.0200712	13	930.802	8.1676e-06
2	0	0	1	1	27899.3	-0.709419	-0.710798	-0.00887271	3	0.0196772	13	970.81	6.30671e-06
2	0	0	1	1	27939.4	-0.66941	-0.670568	-0.00696852	3	0.0193613	13	1010.82	4.67286e-06
2	0	0	1	1	27979.4	-0.629401	-0.631117	-0.00516191	3	0.019119	13	1050.83	3.25777e-06
2	1	0	1	1	28019.4	-0.589393	-0.591009	-0.00354155	3	0.0189462	13	1090.84	2.09309e-06
2	0	0	1	1	28059.4	-0.549384	-0.551122	-0.00192752	3	0.0188382	13	1130.84	1.0623e-06
2	0	0	1	1	28099.4	-0.509375	-0.511056	-0.000453556	3	0.0187912	13	1170.85	2.31793e-07
2	1	0	1	1	28139.4	-0.469367	-0.470677	0.000871216	3	0.0188008	13	26.0056	-4.10062e-07
2	1	0	1	1	28178.2	-0.430559	-0.432418	0.00183513	4	0.0188554	13	64.814	-7.93542e-07
2	1	0	1	1	28218.2	-0.39055	-0.392411	0.00260834	4	0.0189466	13	104.823	-1.02354e-06
2	1	0	1	1	28258.2	-0.350541	-0.351544	0.00326698	4	0.019067	13	144.831	-1.14849e-06
2	1	0	1	1	28298.2	-0.310532	-0.312038	0.00398356	4	0.0192144	13	184.84	-1.24302e-06
2	1	0	1	1	28338.2	-0.270524	-0.271687	0.00457558	4	0.019388	13	224.849	-1.24313e-06
2	1	0	1	1	28378.2	-0.230515	-0.232045	0.00512127	4	0.0195845	13	264.857	-1.18836e-06
2	1	0	1	1	28418.3	-0.190507	-0.19187	0.00554653	4	0.0198002	13	304.866	-1.06422e-06
2	1	0	1	1	28458.3	-0.150498	-0.151498	0.00599089	4	0.020033	13	344.875	-9.07609e-07
2	1	0	1	1	28498.3	-0.110489	-0.112466	0.00634176	4	0.0202807	13	384.883	-7.13234e-07
2	1	0	1	1	28538.3	-0.0704807	-0.0718757	0.00668936	4	0.0205435	13	424.892	-4.80802e-07
2	1	0	1	1	28578.3	-0.0304721	-0.0321573	0.00699853	4	0.0208193	13	464.9	-2.25054e-07
2	0	0	1	1	28618.3	0.00953654	0.00802698	0.00724723	4	0.0211056	13	504.909	5.81734e-08
2	1	0	1	1	28658.3	0.0495453	0.0482664	0.00735849	4	0.0213983	13	544.918	3.55168e-07
2	1	0	1	1	28698.3	0.0895539	0.0883403	0.00741264	4	0.021695	13	584.926	6.54835e-07
2	1	0	1	1	28738.3	0.129563	0.128734	0.00748041	4	0.0219932	13	624.935	9.6298e-07
2	1	0	1	1	28778.3	0.169571	0.168123	0.00747895	4	0.0222924	13	664.944	1.25738e-06
2	0	0	1	1	28818.3	0.20958	0.20781	0.0075409	4	0.0225932	13	704.952	1.56707e-06
2	1	0	1	1	28858.4	0.249588	0.248179	0.00753664	4	0.0228958	13	744.961	1.87043e-06
2	1	0	1	1	28898.4	0.289597	0.287998	0.00766804	4	0.0232012	13	784.97	2.20838e-06
2	1	0	1	1	28938.4	0.329606	0.328204	0.00776226	4	0.0235098	13	824.978	2.54761e-06
2	1	0	1	1	28978.4	0.369614	0.368054	0.00782227	4	0.023822	13	864.987	2.87902e-06
2	1	0	1	1	29018.4	0.409623	0.408104	0.00789878	4	0.0241372	13	904.996	3.22352e-06
2	1	0	1	1	29058.4	0.449632	0.448306	0.00796469	4	0.0244549	13	945.004	3.57062e-06
2	1	0	1	1	29098.4	0.48964	0.488218	0.00804598	4	0.0247753	13	985.013	3.9282e-06
2	1	0	1	1	29138.4	0.529649	0.528256	0.00814274	4	0.0250991	13	1025.02	4.30146e-06
2	1	0	1	1	29178.4	0.569657	0.568125	0.008284	4	0.0254282	13	1065.03	4.70635e-06
2	1	0	1	1	29218.4	0.609666	0.608378	0.00837039	4	0.0257614	13	1105.04	5.09236e-06
2	1	0	1	1	29258.4	0.649675	0.648479	0.00849924	4	0.0260991	13	1145.05	5.51158e-06
2	1	0	1	1	29298.4	0.689683	0.68806	0.00861041	4	0.0264412	13	1185.06	5.92448e-06
2	1	0	1	1	29338.5	0.729692	0.728845	0.00869003	4	0.0267873	13	1225.06	6.33369e-06
2	1	0	1	1	29378.5	0.7697	0.768092	0.0087939	4	0.0271373	13	1265.07	6.75453e-06
2	1	0	1	1	29418.5	0.809709	0.808185	0.00891259	4	0.0274921	13	1305.08	7.20301e-06
2	1	0	1	1	29458.5	0.849718	0.848287	0.00904909	4	0.0278519	13	1345.09	7.67623e-06
2	1	0	1	1	29498.5	0.889726	0.888157	0.00916114	4	0.0282171	13	1385.1	8.13653e-06
2	1	0	1	1	29538.5	0.929735	0.928318	0.00933176	4	0.0285877	13	1425.11	8.66284e-06
2	1	0	1	1	29578.5	0.969744	0.968273	0.00947445	4	0.0289643	13	1465.12	9.17385e-06
2	1	0	1	1	29617.3	0.991448	0.989967	0.00950313	4	0.029335	13	1503.93	9.40779e-06
2	1	0	1	1	29657.3	0.95144	0.950045	0.00916355	4	0.0297079	13	1543.93	8.70579e-06
2	1	0	1	1	29697.3	0.911431	0.910493	0.00888885	4	0.0300683	13	1583.94	8.09324e-06
2	1	0	1	1	29737.3	0.871423	0.870299	0.00853581	4	0.0304166	13	1623.95	7.42871e-06
2	1	0	1	1	29777.4	0.831414	0.830226	0.00828501	4	0.0307533	13	1663.96	6.87842e-06
2	1	0	1	1	29817.4	0.791405	0.789819	0.00801321	4	0.031079	13	1703.97	6.32899e-06
2	1	0	1	1	29857.4	0.751397	0.749994	0.00775231	4	0.0313939	13	1743.98	5.81419e-06
2	1	0	1	1	29897.4	0.711388	0.709635	0.00750122	4	0.0316982	13	1783.99	5.32313e-06
2	1	0	1	1	29937.4	0.671379	0.669886	0.00721851	4	0.0319922	13	1823.99	4.83558e-06
2	1	0	1	1	29977.4	0.631371	0.629843	0.00695314	4	0.0322758	13	1864	4.37938e-06
2	1	0	1	1	30017.4	0.591362	0.590023	0.00671617	4	0.0325492	13	1904.01	3.9627e-06
2	1	0	1	1	30057.4	0.551354	0.549802	0.00647209	4	0.0328127	13	1944.02	3.55837e-06
2	1	0	1	1	30097.4	0.511345	0.509732	0.00623682	4	0.0330668	13	1984.03	3.17911e-06
2	1	0	1	1	30137.4	0.471336	0.46915	0.00599008	4	0.0333113	13	2024.04	2.81025e-06
2	1	0	0	1	30177.4	0.431328	0.429053	0.00577011	4	0.0335461	13	2064.05	2.47568e-06
2	1	0	1	1	30217.4	0.391319	0.389853	0.00551689	4	0.0337716	13	2104.05	2.15078e-06
2	1	0	1	1	30257.5	0.35131	0.349713	0.00529091	4	0.0339877	13	2144.06	1.8503e-06
2	1	0	1	1	30297.5	0.311302	0.30976	0.00505075	4	0.0341941	13	2184.07	1.56452e-06
2	1	0	1	1	30337.5	0.271293	0.269936	0.00481048	4	0.0343908	13	2224.08	1.29852e-06
2	0	0	1	1	30377.5	0.231285	0.22953	0.0045677	4	0.0345778	13	2264.09	1.04843e-06
2	1	0	1	1	30417.5	0.191276	0.19003	0.00430381	4	0.0347548	13	2304.1	8.17855e-07
2	1	0	1	1	30457.5	0.151267	0.149708	0.00404708	4	0.0349217	13	2344.11	6.05881e-07
2	1	0	1	1	30497.5	0.111259	0.11004	0.00378504	4	0.0350784	13	2384.12	4.16505e-07
2	1	0	1	1	30537.5	0.07125	0.0700795	0.00351764	4	0.0352246	13	2424.12	2.46514e-07
2	1	0	1	1	30577.5	0.0312414	0.0295198	0.00323784	4	0.0353596	13	2464.13	9.55804e-08
2	0	0	1	1	30617.5	-0.00876741	-0.0105076	0.00292754	4	0.0354823	13	2504.14	-3.07614e-08
2	1	0	1	1	30657.5	-0.048776	-0.0513899	0.00246907	4	0.0355903	13	2544.15	-1.26885e-07
2	0	0	1	1	30697.6	-0.0887846	-0.0904324	0.00203784	4	0.0356804	13	2584.16	-1.84287e-07
2	1	0	1	1	30737.6	-0.128793	-0.130261	0.00137145	4	0.035747	13	2624.17	-1.78647e-07
2	0	0	1	1	30777.6	-0.168802	-0.170234	0.000808688	4	0.0357871	13	2664.18	-1.37666e-07
2	0	0	1	1	30817.6	-0.208811	-0.210168	0.000801089	4	0.0358157	13	2704.18	-1.68364e-07
2	1	0	1	1	30857.6	-0.248819	-0.250424	0.000648258	4	0.0358435	13	2744.19	-1.62339e-07
2	0	0	1	1	30897.6	-0.288828	-0.290334	0.000374346	4	0.0358617	13	2784.2	-1.08685e-07
2	1	0	1	1	30937.6	-0.328836	-0.330257	3.84449e-05	4	0.035868	13	2824.21	-1.26967e-08
2	0	0	1	1	30977.6	-0.368845	-0.370391	-0.000269127	4	0.0358625	13	36.0077	9.96823e-08
2	1	0	1	1	31017.6	-0.408854	-0.409801	-0.000696516	4	0.0358419	13	76.0164	2.85433e-07
2	0	0	1	1	31057.6	-0.448862	-0.450812	-0.00130823	4	0.035801	13	116.025	5.89765e-07
2	0	0	1	1	31097.6	-0.488871	-0.490047	-0.00204375	4	0.0357335	13	156.034	1.00153e-06
2	1	0	1	1	31137.6	-0.52888	-0.530379	-0.00295523	4	0.0356334	13	196.042	1.56739e-06
2	0	0	1	1	31177.7	-0.568888	-0.57011	-0.00390524	4	0.0354957	13	236.051	2.22642e-06
2	0	0	1	1	31217.7	-0.608897	-0.610657	-0.00508642	4	0.0353152	13	276.06	3.10605e-06
2	0	0	1	1	31257.7	-0.648906	-0.650546	-0.00636658	4	0.0350862	13	316.068	4.14175e-06
2	0	0	1	1	31297.7	-0.688914	-0.69055	-0.00779306	4	0.0348026	13	356.077	5.3815e-06
2	0	0	1	1	31337.7	-0.728923	-0.730296	-0.00932898	4	0.0344597	13	396.085	6.81292e-06
2	0	0	1	1	31377.7	-0.768932	-0.770226	-0.0110095	4	0.0340524	13	436.094	8.47982e-06
2	0	0	1	1	31417.7	-0.80894	-0.810364	-0.0127754	4	0.0335759	13	476.103	1.03527e-05
2	0	0	1	1	31457.7	-0.848949	-0.850289	-0.0146476	4	0.0330273	13	516.111	1.24547e-05
2	0	0	1	1	31497.7	-0.888958	-0.890749	-0.0166675	4	0.0324009	13	556.12	1.48465e-05
2	0	0	1	1	31537.7	-0.928966	-0.930864	-0.0190882	4	0.0316872	13	596.129	1.77685e-05
2	0	0	1	1	31577.7	-0.968975	-0.970515	-0.0224499	4	0.0308594	13	636.137	2.1788e-05
2	0	0	1	0	31616.3	-0.99248	-0.993808	-0.0249639	4	0.0299216	13	674.746	2.48094e-05
2	0	0	1	0	31656.4	-0.952471	-0.953695	-0.0217048	4	0.028993	13	714.755	2.06998e-05
2	0	0	1	0	31696.4	-0.912463	-0.914178	-0.0190047	4	0.0281812	13	754.763	1.73737e-05
2	0	0	1	0	31736.4	-0.872454	-0.874328	-0.0164604	4	0.0274736	13	794.772	1.43918e-05
2	0	0	1	0	31776.4	-0.832445	-0.834187	-0.0140097	4	0.0268658	13	834.781	1.16867e-05
2	0	0	1	0	31816.4	-0.792437	-0.79419	-0.0118838	4	0.0263492	13	874.789	9.438e-06
2	0	0	1	0	31856.4	-0.752428	-0.753722	-0.0099543	4	0.0259144	13	914.798	7.50277e-06
2	0	0	1	0	31896.4	-0.712419	-0.713871	-0.0081197	4	0.0255536	13	954.807	5.79641e-06
2	0	0	1	0	31936.4	-0.672411	-0.674256	-0.00648102	4	0.0252626	13	994.815	4.36987e-06
2	0	0	1	0	31976.4	-0.632402	-0.633672	-0.00488398	4	0.0250371	13	1034.82	3.09484e-06
2	1	0	1	0	32016.4	-0.592393	-0.594549	-0.00343527	4	0.0248729	13	1074.83	2.04244e-06
2	0	0	1	0	32056.4	-0.552385	-0.554053	-0.00196762	4	0.0247665	13	1114.84	1.09016e-06
2	0	0	1	0	32096.5	-0.512376	-0.514427	-0.000607496	4	0.024715	13	1154.85	3.12512e-07
2	1	0	1	0	32136.5	-0.472367	-0.473699	0.000557422	4	0.0247149	13	19.0042	-2.6405e-07
2	0	0	0	0	32175.3	-0.433559	-0.435366	0.00149636	5	0.024756	13	57.8125	-6.51463e-07
2	0	0	1	0	32215.3	-0.39355	-0.395101	0.00216662	5	0.0248294	13	97.8212	-8.56034e-07
2	1	0	1	0	32255.3	-0.353542	-0.35559	0.0027452	5	0.024929	13	137.83	-9.76165e-07
2	0	0	1	0	32295.3	-0.313533	-0.315023	0.00342986	5	0.0250541	13	177.838	-1.08048e-06
2	1	0	1	0	32335.3	-0.273525	-0.275516	0.00398055	5	0.0252049	13	217.847	-1.09671e-06
2	1	0	1	0	32375.3	-0.233516	-0.234949	0.00459893	5	0.0253797	13	257.856	-1.08051e-06
2	1	0	1	0	32415.3	-0.193507	-0.194999	0.00511748	5	0.0255765	13	297.864	-9.97906e-07
2	0	0	1	0	32455.3	-0.153499	-0.155075	0.00569161	5	0.0257943	13	337.873	-8.82627e-07
2	1	0	1	0	32495.3	-0.11349	-0.115031	0.00619798	5	0.0260336	13	377.882	-7.12959e-07
2	1	0	1	0	32535.3	-0.0734814	-0.0749305	0.00678846	5	0.0262955	13	417.89	-5.08663e-07
2	0	0	1	0	32575.4	-0.0334727	-0.0351357	0.00734168	5	0.0265795	13	457.899	-2.57955e-07
2	1	0	1	0	32615.4	0.00653605	0.00540306	0.00773351	5	0.0268828	13	497.908	4.17846e-08
2	1	0	1	0	32655.4	0.0465446	0.0449698	0.00801803	5	0.0272003	13	537.916	3.60569e-07
2	1	0	1	0	32695.4	0.0865532	0.0845649	0.00827343	5	0.0275286	13	577.925	6.99642e-07
2	1	0	1	0	32735.4	0.126562	0.124663	0.00848507	5	0.0278664	13	617.933	1.05778e-06
2	1	0	0	0	32775.4	0.16657	0.165587	0.00872847	5	0.0282123	13	657.942	1.44532e-06
2	1	0	1	0	32815.4	0.206579	0.205398	0.00886991	5	0.0285655	13	697.951	1.82186e-06
2	1	0	1	0	32855.4	0.246588	0.245407	0.00904925	5	0.028925	13	737.959	2.22075e-06
2	1	0	1	0	32895.4	0.286596	0.28538	0.00920856	5	0.02929	13	777.968	2.62794e-06
2	1	0	1	0	32935.4	0.326605	0.324866	0.0093353	5	0.0296607	13	817.977	3.03272e-06
2	1	0	1	0	32975.4	0.366614	0.36501	0.00947967	5	0.030037	13	857.985	3.46017e-06
2	1	0	1	0	33015.5	0.406622	0.405389	0.00961755	5	0.0304186	13	897.994	3.89885e-06
2	1	0	1	0	33055.5	0.446631	0.44539	0.00973757	5	0.0308055	13	938.003	4.33702e-06
2	1	0	1	0	33095.5	0.486639	0.485068	0.00983398	5	0.0311973	13	978.011	4.77015e-06
2	1	0	1	0	33135.5	0.526648	0.525072	0.00994324	5	0.0315934	13	1018.02	5.22092e-06
2	1	0	1	0	33175.5	0.566657	0.564921	0.0100698	5	0.0319945	13	1058.03	5.68867e-06
2	1	0	1	0	33215.5	0.606665	0.605279	0.0102529	5	0.0324017	13	1098.04	6.20589e-06
2	1	0	1	0	33255.5	0.646674	0.645185	0.0103921	5	0.0328148	13	1138.05	6.7048e-06
2	1	0	1	0	33295.5	0.686683	0.685338	0.0105121	5	0.0332333	13	1178.05	7.20436e-06
2	1	0	1	0	33335.5	0.726691	0.725348	0.0106918	5	0.0336574	13	1218.06	7.75529e-06
2	1	0	1	0	33375.5	0.7667	0.765233	0.0108347	5	0.0340879	13	1258.07	8.29106e-06
2	1	0	1	0	33415.5	0.806709	0.805161	0.0110052	5	0.034525	13	1298.08	8.86098e-06
2	1	0	1	0	33455.5	0.846717	0.845185	0.0111702	5	0.0349687	13	1338.09	9.44086e-06
2	1	0	1	0	33495.6	0.886726	0.885442	0.0113917	5	0.0354198	13	1378.1	1.00867e-05
2	1	0	1	0	33535.6	0.926735	0.925429	0.0115298	5	0.0358789	13	1418.11	1.067e-05
2	1	0	1	0	33575.6	0.966743	0.965099	0.0117211	5	0.0363434	13	1458.11	1.1312e-05
2	1	0	1	0	33614.4	0.994449	0.992935	0.0118117	5	0.0368019	13	1496.92	1.17283e-05
2	1	0	1	0	33654.4	0.954441	0.95304	0.0114117	5	0.037266	13	1536.93	1.08758e-05
2	1	0	1	0	33694.4	0.914432	0.91261	0.0110755	5	0.0377168	13	1576.94	1.01076e-05
2	1	0	1	0	33734.4	0.874423	0.87289	0.0107809	5	0.0381545	13	1616.95	9.41051e-06
2	1	0	1	0	33774.4	0.834414	0.83331	0.0105046	5	0.0385804	13	1656.96	8.75361e-06
2	1	0	1	0	33814.4	0.794406	0.792705	0.0101846	5	0.0389951	13	1696.97	8.0734e-06
2	1	0	1	0	33854.4	0.754397	0.753621	0.00999613	5	0.0393985	13	1736.98	7.53329e-06
2	1	0	0	0	33894.4	0.714389	0.713097	0.00969083	5	0.039791	13	1776.98	6.9105e-06
2	1	0	1	0	33934.5	0.67438	0.673	0.0094188	5	0.0401726	13	1816.99	6.33885e-06
2	1	0	1	0	33974.5	0.634371	0.632808	0.00913862	5	0.0405433	13	1857	5.78299e-06
2	1	0	1	0	34014.5	0.594363	0.592727	0.00887648	5	0.0409033	13	1897.01	5.26133e-06
2	1	0	1	0	34054.5	0.554354	0.552912	0.00861669	5	0.0412528	13	1937.02	4.76427e-06
2	1	0	1	0	34094.5	0.514346	0.51311	0.00835553	5	0.0415921	13	1977.03	4.28731e-06
2	1	0	1	0	34134.5	0.474337	0.47293	0.00811268	5	0.0419209	13	2017.04	3.83673e-06
2	1	0	1	0	34174.5	0.434328	0.432973	0.00780641	5	0.0422391	13	2057.04	3.37996e-06
2	1	0	1	0	34214.5	0.39432	0.392922	0.00755297	5	0.0425465	13	2097.05	2.96773e-06
2	1	0	1	0	34254.5	0.354311	0.352669	0.00727686	5	0.0428431	13	2137.06	2.56632e-06
2	1	0	1	0	34294.5	0.314302	0.312994	0.00700283	5	0.0431287	13	2177.07	2.19184e-06
2	1	0	1	0	34334.5	0.274294	0.27266	0.00672326	5	0.0434028	13	2217.08	1.83317e-06
2	1	0	1	0	34374.5	0.234285	0.232886	0.00644422	5	0.0436654	13	2257.09	1.50077e-06
2	1	0	1	0	34414.6	0.194276	0.192752	0.00612806	5	0.0439161	13	2297.1	1.1812e-06
2	1	0	1	0	34454.6	0.154268	0.152982	0.00582302	5	0.0441545	13	2337.1	8.90816e-07
2	1	0	1	0	34494.6	0.114259	0.112631	0.00548046	5	0.0443802	13	2377.11	6.1727e-07
2	1	0	1	0	34534.6	0.0742507	0.0736022	0.00518606	5	0.0445924	13	2417.12	3.81705e-07
2	1	0	1	0	34574.6	0.0342419	0.0329543	0.0047651	5	0.0447905	13	2457.13	1.5703e-07
2	0	0	1	0	34614.6	-0.00576669	-0.00749941	0.00436107	5	0.0449725	13	2497.14	-3.27054e-08
2	1	0	1	0	34654.6	-0.0457753	-0.0473377	0.00385115	5	0.0451359	13	2537.15	-1.82304e-07
2	1	0	1	0	34694.6	-0.0857839	-0.0871898	0.00323536	5	0.0452764	13	2577.16	-2.82091e-07
2	0	0	1	0	34734.6	-0.125793	-0.127709	0.00244754	5	0.045388	13	2617.17	-3.12574e-07
2	1	0	1	0	34774.6	-0.165801	-0.167058	0.00165285	5	0.0454661	13	2657.17	-2.76122e-07
2	1	0	1	0	34814.6	-0.20581	-0.207769	0.00149587	5	0.0455258	13	2697.18	-3.10795e-07
2	0	0	1	0	34854.6	-0.245819	-0.247361	0.00132421	5	0.0455816	13	2737.19	-3.27558e-07
2	1	0	1	0	34894.7	-0.285827	-0.287237	0.000821955	5	0.0456229	13	2777.2	-2.36096e-07
2	0	0	1	0	34934.7	-0.325836	-0.32747	0.000415508	5	0.045646	13	2817.21	-1.36066e-07
2	1	0	1	0	34974.7	-0.365845	-0.367086	-9.82945e-05	5	0.0456505	13	9.002	3.60826e-08
2	1	0	1	0	35014.7	-0.405853	-0.407083	-0.0006896	5	0.0456338	13	49.0106	2.80724e-07
2	1	0	1	0	35054.7	-0.445862	-0.447943	-0.00142093	5	0.0455916	13	89.0192	6.36497e-07
2	1	0	1	0	35094.7	-0.48587	-0.487279	-0.0022228	5	0.0455193	13	129.028	1.08313e-06
2	0	0	1	0	35134.7	-0.525879	-0.527432	-0.00311362	5	0.0454125	13	169.036	1.64222e-06
2	0	0	0	0	35174.7	-0.565888	-0.567341	-0.00407326	5	0.0452681	13	209.045	2.31093e-06
2	0	0	1	0	35214.7	-0.605896	-0.607406	-0.00513716	5	0.0450834	13	249.054	3.12034e-06
2	0	0	1	0	35254.7	-0.645905	-0.647463	-0.00626032	5	0.0448549	13	289.062	4.05332e-06
2	0	0	1	0	35294.7	-0.685914	-0.687532	-0.0074988	5	0.0445792	13	329.071	5.15566e-06
2	0	0	1	0	35334.8	-0.725922	-0.727254	-0.00882919	5	0.0442527	13	369.08	6.42106e-06
2	0	0	1	0	35374.8	-0.765931	-0.767379	-0.0102158	5	0.0438716	13	409.088	7.83941e-06
2	0	0	1	0	35414.8	-0.80594	-0.807821	-0.0117351	5	0.0434331	13	449.097	9.47987e-06
2	0	0	1	0	35454.8	-0.845948	-0.847433	-0.0132244	5	0.0429342	13	489.106	1.12068e-05
2	0	0	1	0	35494.8	-0.885957	-0.887567	-0.0149485	5	0.0423707	13	529.114	1.32678e-05
2	0	0	1	0	35534.8	-0.925966	-0.92761	-0.017006	5	0.0417328	13	569.123	1.57749e-05
2	0	0	1	0	35574.8	-0.965974	-0.967051	-0.0199015	5	0.0409967	13	609.131	1.92457e-05
2	0	0	1	1	35613.4	-0.995481	-0.997188	-0.0226867	5	0.040162	13	647.74	2.26229e-05
2	0	0	1	1	35653.4	-0.955472	-0.95682	-0.0197289	5	0.039318	13	687.749	1.8877e-05
2	0	0	1	1	35693.4	-0.915463	-0.917207	-0.0173073	5	0.0385797	13	727.758	1.58743e-05
2	0	0	1	1	35733.4	-0.875455	-0.877061	-0.0150334	5	0.0379339	13	767.766	1.31852e-05
2	0	0	1	1	35773.4	-0.835446	-0.837008	-0.0129343	5	0.0373757	13	807.775	1.08261e-05
2	0	0	1	1	35813.5	-0.795437	-0.796774	-0.0110336	5	0.0368979	13	847.784	8.79131e-06
2	0	0	1	1	35853.5	-0.755429	-0.756905	-0.00937482	5	0.0364911	13	887.792	7.09585e-06
2	0	0	1	1	35893.5	-0.71542	-0.716748	-0.00784021	5	0.0361481	13	927.801	5.61945e-06
2	0	0	0	1	35933.5	-0.675411	-0.676771	-0.00638797	5	0.0358648	13	967.81	4.32319e-06
2	1	0	1	1	35973.5	-0.635403	-0.636928	-0.00500676	5	0.0356383	13	1007.82	3.18895e-06
2	0	0	1	1	36013.5	-0.595394	-0.596734	-0.00364636	5	0.0354664	13	1047.83	2.17591e-06
2	0	0	1	1	36053.5	-0.555385	-0.557278	-0.00233732	5	0.0353478	13	1087.84	1.30254e-06
2	1	0	1	1	36093.5	-0.515377	-0.516857	-0.0010084	5	0.0352822	13	1127.84	5.21201e-07
2	0	0	1	1	36133.5	-0.475368	-0.476041	0.000315598	5	0.0352688	13	8.0018	-1.50238e-07
2	0	0	1	1	36172.3	-0.43656	-0.437759	0.00131872	6	0.035301	13	46.8102	-5.7728e-07
2	1	0	1	1	36212.3	-0.396551	-0.397992	0.00221859	6	0.0353728	13	86.8188	-8.82981e-07
2	0	0	1	1	36252.4	-0.356543	-0.35862	0.00313991	6	0.0354805	13	126.827	-1.12603e-06
2	1	0	1	1	36292.4	-0.316534	-0.317965	0.0040207	6	0.0356247	13	166.836	-1.27844e-06
2	0	0	1	1	36332.4	-0.276525	-0.278338	0.00501279	6	0.0358072	13	206.845	-1.39525e-06
2	1	0	1	1	36372.4	-0.236516	-0.237867	0.0059401	6	0.0360279	13	246.853	-1.41295e-06
2	0	0	1	1	36412.4	-0.196508	-0.19808	0.00688728	6	0.0362856	13	286.862	-1.36423e-06
2	1	0	1	1	36452.4	-0.156499	-0.158229	0.00778061	6	0.0365804	13	326.871	-1.23111e-06
2	0	0	1	1	36492.4	-0.116491	-0.118226	0.00877278	6	0.036913	13	366.879	-1.03717e-06
2	1	0	1	1	36532.4	-0.0764819	-0.0782674	0.00972124	6	0.0372839	13	406.888	-7.60856e-07
2	1	0	1	1	36572.4	-0.0364732	-0.0379357	0.0106789	6	0.0376937	13	446.897	-4.05112e-07
2	1	0	1	1	36612.4	0.00353536	0.00178164	0.0114968	6	0.0381406	13	486.905	2.04832e-08
2	1	0	1	1	36652.4	0.0435439	0.0426597	0.0122961	6	0.0386202	13	526.914	5.24547e-07
2	0	0	1	1	36692.4	0.0835525	0.0815144	0.0130722	6	0.0391287	13	566.922	1.06557e-06
2	1	0	1	1	36732.5	0.123561	0.121434	0.0135604	6	0.0396626	13	606.931	1.64668e-06
2	1	0	1	1	36772.5	0.16357	0.162162	0.0140504	6	0.0402175	13	646.94	2.27844e-06
2	1	0	1	1	36812.5	0.203578	0.20185	0.0144503	6	0.0407888	13	686.948	2.9168e-06
2	1	0	1	1	36852.5	0.243587	0.242222	0.0146294	6	0.041371	13	726.957	3.54356e-06
2	1	0	1	1	36892.5	0.283596	0.282218	0.0146986	6	0.0419585	13	766.966	4.14821e-06
2	1	0	1	1	36932.5	0.323604	0.321942	0.0145847	6	0.0425451	13	806.974	4.69542e-06
2	1	0	1	1	36972.5	0.363613	0.362062	0.0143836	6	0.0431252	13	846.983	5.20775e-06
2	1	0	1	1	37012.5	0.403622	0.402105	0.0141394	6	0.0436958	13	886.992	5.68552e-06
2	1	0	1	1	37052.5	0.44363	0.443112	0.0139467	6	0.0442571	13	927	6.17993e-06
2	1	0	0	1	37092.5	0.483639	0.482633	0.0136782	6	0.0448098	13	967.009	6.60156e-06
2	1	0	1	1	37132.5	0.523648	0.521772	0.013559	6	0.0453556	13	1007.02	7.07472e-06
2	1	0	1	1	37172.6	0.563656	0.562025	0.0134599	6	0.0458969	13	1047.03	7.5648e-06
2	1	0	1	1	37212.6	0.603665	0.602392	0.0134086	6	0.0464348	13	1087.03	8.07725e-06
2	1	0	1	1	37252.6	0.643673	0.642174	0.0134148	6	0.0469713	13	1127.04	8.61465e-06
2	1	0	1	1	37292.6	0.683682	0.682357	0.0134665	6	0.0475092	13	1167.05	9.18899e-06
2	1	0	1	1	37332.6	0.723691	0.722093	0.0134981	6	0.048049	13	1207.06	9.74686e-06
2	1	0	1	1	37372.6	0.763699	0.762111	0.0135564	6	0.0485917	13	1247.07	1.03315e-05
2	1	0	1	1	37412.6	0.803708	0.801858	0.0136492	6	0.0491367	13	1287.08	1.09447e-05
2	1	0	1	1	37452.6	0.843717	0.842315	0.0137538	6	0.0496858	13	1327.09	1.1585e-05
2	1	0	1	1	37492.6	0.883725	0.882458	0.0138977	6	0.0502397	13	1367.1	1.22642e-05
2	1	0	1	1	37532.6	0.923734	0.922295	0.0140392	6	0.0507991	13	1407.1	1.29482e-05
2	1	0	1	1	37572.6	0.963742	0.962224	0.0141922	6	0.0513644	13	1447.11	1.36561e-05
2	1	0	1	1	37611.4	0.99745	0.995996	0.01427	6	0.0519184	13	1485.92	1.42128e-05
2	1	0	1	1	37651.5	0.957441	0.956205	0.0137949	6	0.0524786	13	1525.93	1.31908e-05
2	1	0	1	1	37691.5	0.917432	0.916082	0.0134076	6	0.0530222	13	1565.94	1.22825e-05
2	1	0	1	1	37731.5	0.877424	0.876019	0.0130561	6	0.0535516	13	1605.95	1.14374e-05
2	1	0	1	1	37771.5	0.837415	0.836112	0.0127593	6	0.0540677	13	1645.96	1.06682e-05
2	1	0	1	1	37811.5	0.797406	0.7958	0.0124162	6	0.0545712	13	1685.96	9.88083e-06
2	1	0	1	1	37851.5	0.757398	0.756043	0.0120841	6	0.0550614	13	1725.97	9.13608e-06
2	1	0	1	1	37891.5	0.717389	0.716113	0.0118045	6	0.0555397	13	1765.98	8.45338e-06
2	1	0	1	1	37931.5	0.677381	0.676082	0.0114871	6	0.0560053	13	1805.99	7.76624e-06
2	1	0	1	1	37971.5	0.637372	0.635657	0.0111679	6	0.0564582	13	1846	7.09898e-06
2	0	0	1	1	38011.5	0.597363	0.595246	0.0108875	6	0.0568987	13	1886.01	6.48073e-06
2	1	0	1	1	38051.5	0.557355	0.556065	0.0105539	6	0.0573267	13	1926.02	5.86864e-06
2	1	0	1	1	38091.5	0.517346	0.51596	0.0101874	6	0.057741	13	1966.03	5.25628e-06
2	1	0	1	1	38131.6	0.477337	0.475875	0.00990157	6	0.0581427	13	2006.03	4.71191e-06
2	1	0	1	1	38171.6	0.437329	0.43597	0.0096261	6	0.058533	13	2046.04	4.19669e-06
2	1	0	1	1	38211.6	0.39732	0.395951	0.00931978	6	0.0589115	13	2086.05	3.69018e-06
2	1	0	1	1	38251.6	0.357312	0.354721	0.00895597	6	0.0592775	13	2126.06	3.17687e-06
2	1	0	1	1	38291.6	0.317303	0.315902	0.00868667	6	0.0596312	13	2166.07	2.74414e-06
2	1	0	1	1	38331.6	0.277294	0.276309	0.00838162	6	0.0599722	13	2206.08	2.31592e-06
2	1	0	1	1	38371.6	0.237286	0.235642	0.0080348	6	0.0603001	13	2246.09	1.89334e-06
2	1	0	1	1	38411.6	0.197277	0.195871	0.00769203	6	0.0606143	13	2286.09	1.50664e-06
2	1	0	1	1	38451.6	0.157269	0.15608	0.00732187	6	0.0609145	13	2326.1	1.1428e-06
2	1	0	0	1	38491.6	0.11726	0.115048	0.00691792	6	0.0611999	13	2366.11	7.95894e-07
2	1	0	1	1	38531.6	0.0772512	0.0759917	0.00654453	6	0.0614696	13	2406.12	4.9733e-07
2	0	0	1	1	38571.7	0.0372426	0.0356069	0.00613919	6	0.0617225	13	2446.13	2.18598e-07
2	1	0	1	1	38611.7	-0.002766	-0.00413898	0.00560843	6	0.0619566	13	2486.14	-2.32132e-08
2	1	0	1	1	38651.7	-0.0427746	-0.0442139	0.00501895	6	0.0621685	13	2526.15	-2.21907e-07
2	0	0	0	1	38691.7	-0.0827833	-0.084429	0.0043135	6	0.0623539	13	2566.15	-3.64185e-07
2	0	0	1	1	38731.7	-0.122792	-0.124226	0.00339144	6	0.0625061	13	2606.16	-4.21305e-07
2	0	0	1	1	38771.7	-0.162801	-0.164429	0.00245498	6	0.0626189	13	2646.17	-4.0367e-07
2	0	0	1	1	38811.7	-0.202809	-0.204362	0.0021345	6	0.0627059	13	2686.18	-4.36211e-07
2	1	0	1	1	38851.7	-0.242818	-0.244407	0.00177064	6	0.062783	13	2726.19	-4.32757e-07
2	0	0	0	1	38891.7	-0.282827	-0.284197	0.00117174	6	0.06284	13	2766.2	-3.33004e-07
2	1	0	1	1	38931.7	-0.322835	-0.324162	0.000513082	6	0.0628716	13	2806.21	-1.66321e-07
2	1	0	1	1	38971.7	-0.362844	-0.364278	-0.000198971	6	0.0628768	13	11.0024	7.24805e-08
2	0	0	1	1	39011.7	-0.402852	-0.404782	-0.000965464	6	0.0628533	13	51.011	3.90803e-07
2	0	0	1	1	39051.8	-0.442861	-0.444665	-0.00183058	6	0.0627972	13	91.0196	8.13996e-07
2	0	0	1	1	39091.8	-0.48287	-0.483452	-0.00273898	6	0.0627046	13	131.028	1.32416e-06
2	1	0	1	1	39131.8	-0.522878	-0.524495	-0.00385493	6	0.0625717	13	171.037	2.02189e-06
2	1	0	1	1	39171.8	-0.562887	-0.565259	-0.00497066	6	0.0623961	13	211.046	2.80971e-06
2	0	0	1	1	39211.8	-0.602896	-0.604241	-0.00604874	6	0.0621762	13	251.054	3.6549e-06
2	0	0	1	1	39251.8	-0.642904	-0.644417	-0.00723143	6	0.0619102	13	291.063	4.66006e-06
2	0	0	1	1	39291.8	-0.682913	-0.684606	-0.00844439	6	0.0615959	13	331.071	5.78108e-06
2	0	0	1	1	39331.8	-0.722922	-0.724616	-0.00974774	6	0.0612308	13	371.08	7.06337e-06
2	0	0	1	1	39371.8	-0.76293	-0.764648	-0.0111137	6	0.0608127	13	411.089	8.49807e-06
2	0	0	1	1	39411.8	-0.802939	-0.804282	-0.0124876	6	0.0603394	13	451.097	1.00436e-05
2	0	0	1	1	39451.8	-0.842948	-0.844636	-0.0139627	6	0.0598084	13	491.106	1.17934e-05
2	0	0	1	1	39491.9	-0.882956	-0.884516	-0.0156086	6	0.0592164	13	531.115	1.3806e-05
2	0	0	1	1	39531.9	-0.922965	-0.92444	-0.0174929	6	0.0585554	13	571.123	1.61712e-05
2	0	0	1	1	39571.9	-0.962973	-0.964704	-0.0199964	6	0.0578069	13	611.132	1.92906e-05
2	0	0	1	0	39610.5	-0.998481	-1.00006	-0.0229287	6	0.0569743	13	649.741	2.29302e-05
2	0	0	1	0	39650.5	-0.958473	-0.959974	-0.0200412	6	0.056118	13	689.75	1.9239e-05
2	0	0	1	0	39690.5	-0.918464	-0.919974	-0.0177683	6	0.0553627	13	729.758	1.63464e-05
2	0	0	1	0	39730.5	-0.878455	-0.88009	-0.0155948	6	0.0546965	13	769.767	1.37249e-05
2	0	0	1	0	39770.5	-0.838447	-0.839864	-0.0135297	6	0.0541152	13	809.775	1.13631e-05
2	0	0	1	0	39810.5	-0.798438	-0.798829	-0.0116178	6	0.0536124	13	849.784	9.28062e-06
2	0	0	1	0	39850.5	-0.758429	-0.75983	-0.0100071	6	0.0531803	13	889.793	7.60372e-06
2	0	0	1	0	39890.5	-0.718421	-0.719618	-0.00837933	6	0.0528131	13	929.801	6.02992e-06
2	0	0	1	0	39930.5	-0.678412	-0.680171	-0.00690575	6	0.0525075	13	969.81	4.69709e-06
2	1	0	1	0	39970.6	-0.638403	-0.639689	-0.00545405	6	0.0522616	13	1009.82	3.4889e-06
2	0	0	1	0	40010.6	-0.598395	-0.600046	-0.00396558	6	0.0520741	13	1049.83	2.37953e-06
2	0	0	1	0	40050.6	-0.558386	-0.559793	-0.00251966	6	0.0519448	13	1089.84	1.41049e-06
2	0	0	1	0	40090.6	-0.518377	-0.519136	-0.000999285	6	0.0518737	13	1129.84	5.18765e-07
2	1	0	1	0	40130.6	-0.478369	-0.479638	0.00038076	6	0.0518616	13	11.0024	-1.82627e-07
2	0	0	1	0	40147.7	-0.461215	-0.462485	0.00114537	6	0.051874	13	28.1345	-5.29715e-07