File: resorufin_10x_frittedTiCt_FTOWE_AgAgClref_N2sparge_3_16_CV_C12/resorufin_10x_frittedTiCt_FTOWE_AgAgClref_N2sparge_3_12_CV_C12.txt
EC-Lab ASCII FILE
Nb header lines : 59

Cyclic Voltammetry

Run on channel : 12 (SN 15159)
User :
CE vs. WE compliance from -10 V to 10 V
Electrode connection : standard
Potential control : Ewe
Ewe ctrl range : min = -2.50 V, max = 2.50 V
Safety Limits :
	Do not start on E overload
Acquisition started on : 06/27/2024 22:37:21.030
Technique started on : 06/27/2024 22:55:07.648
Loaded Setting File :  NONE
Saved on :
	File : resorufin_10x_frittedTiCt_FTOWE_AgAgClref_N2sparge_3_12_CV_C12.mpr
	Directory : C:\Users\user\OneDrive - California Institute of Technology\Desktop\Big James\06272024_resorufin_spEC_test\
	Host : 10.8.34.190
Device : VMP3 (SN 1026)
Address : 131.215.231.69
EC-Lab for windows v11.50 (software)
Internet server v11.52 (firmware)
Command interpretor v11.50 (firmware)
Electrode material : Au/Pd
Initial state :
Electrolyte : NaCl (0.2M)
Comments : Fe(CN)63-/Fe(CN)64- 5.10-3 M
Reference electrode : SCE Saturated Calomel Electrode (0.241 V)
Electrode surface area : 0.001 cm²
Characteristic mass : 0.001 g
Equivalent Weight : 0.000 g/eq.
Density : 0.000 g/cm3
Volume (V) : 0.001 cm³
Cycle Definition : Charge/Discharge alternance
Ei (V)              0.000
vs.                 Eoc
dE/dt               25.000
dE/dt unit          mV/s
E1 (V)              1.000
vs.                 Ref
Step percent        50
N                   10
E range min (V)     -2.500
E range max (V)     2.500
I Range             Auto
I Range min         Unset
I Range max         Unset
I Range init        Unset
Bandwidth           5
E2 (V)              -1.000
vs.                 Ref
nc cycles           5
Reverse Scan        1
Ef (V)              0.000
vs.                 Eoc

mode	ox/red	error	control changes	counter inc.	time/s	control/V	Ewe/V	<I>/mA	cycle number	(Q-Qo)/C	I Range	step time/s	P/W
2	0	0	0	0	1066.62	-0.367795	-0.369415	-0.00801065	1	0.0000000E+000	13	0.000000000000000E+000	2.95926e-06
2	1	0	1	0	1068.2	-0.328236	-0.329822	0.00719646	1	6.24196e-06	13	1.5202	-2.37355e-06
2	1	0	1	0	1069.8	-0.288228	-0.289847	0.0136516	1	2.31322e-05	13	3.1206	-3.95686e-06
2	1	0	1	0	1071.4	-0.248219	-0.2499	0.0198225	1	5.04209e-05	13	4.721	-4.95364e-06
2	1	0	0	0	1073	-0.20821	-0.209735	0.0259719	1	8.79127e-05	13	6.3212	-5.44722e-06
2	1	0	0	0	1074.6	-0.168202	-0.169835	0.0320395	1	0.000135296	13	7.9216	-5.44144e-06
2	1	0	0	0	1076.2	-0.128193	-0.129807	0.0378044	1	0.000192223	13	9.522	-4.90728e-06
2	1	0	0	0	1077.8	-0.0881845	-0.089677	0.0435418	1	0.000258466	13	11.1224	-3.9047e-06
2	1	0	1	0	1079.4	-0.0481758	-0.0497994	0.0494034	1	0.000333989	13	12.7226	-2.46026e-06
2	1	0	1	0	1081	-0.00816719	-0.00982205	0.0548157	1	0.000418572	13	14.323	-5.38403e-07
2	1	0	1	0	1082.6	0.0318414	0.0302762	0.059604	1	0.000511519	13	15.9234	1.80458e-06
2	1	0	1	0	1084.2	0.071849	0.0703023	0.0647031	1	0.00061245	13	17.5237	4.54878e-06
2	1	0	0	0	1085.8	0.111859	0.110382	0.0700866	1	0.000721438	13	19.124	7.73627e-06
2	1	0	0	0	1087.4	0.151867	0.150357	0.0753055	1	0.000838509	13	20.7244	1.13227e-05
2	1	0	0	0	1089.01	0.191876	0.190462	0.079942	1	0.000963511	13	22.3248	1.5226e-05
2	1	0	1	0	1090.61	0.231885	0.23036	0.0847765	1	0.0010962	13	23.925	1.95291e-05
2	1	0	1	0	1092.21	0.271893	0.270438	0.0897182	1	0.00123639	13	25.5254	2.42632e-05
2	1	0	1	0	1093.83	0.312602	0.311163	0.0948514	1	0.00138713	12	27.1538	2.95142e-05
2	1	0	1	0	1095.43	0.352611	0.351179	0.0991283	1	0.00154246	12	28.7542	3.48118e-05
2	1	0	0	0	1097.03	0.392619	0.391158	0.103437	1	0.00170458	12	30.3544	4.046e-05
2	1	0	0	0	1098.64	0.432628	0.431202	0.107689	1	0.00187329	12	31.9548	4.64355e-05
2	1	0	0	0	1100.24	0.472637	0.471187	0.111251	1	0.00204836	12	33.5552	5.24202e-05
2	1	0	0	0	1101.84	0.512645	0.511201	0.114858	1	0.0022295	12	35.1556	5.87154e-05
2	1	0	1	0	1103.44	0.552654	0.55124	0.118688	1	0.00241646	12	36.7558	6.54258e-05
2	1	0	1	0	1105.04	0.592662	0.591195	0.121967	1	0.00260902	12	38.3562	7.2106e-05
2	1	0	1	0	1106.64	0.632671	0.631176	0.124959	1	0.00280688	12	39.9566	7.88713e-05
2	1	0	0	0	1108.24	0.67268	0.671184	0.128108	1	0.00300976	12	41.5568	8.59842e-05
2	1	0	0	0	1109.84	0.712688	0.711164	0.130497	1	0.00321743	12	43.1572	9.28047e-05
2	1	0	0	0	1111.44	0.752697	0.751247	0.133341	1	0.00342959	12	44.7576	0.000100172
2	1	0	0	0	1113.04	0.792705	0.791253	0.136116	1	0.003646	12	46.358	0.000107703
2	1	0	1	0	1114.64	0.832714	0.831245	0.138874	1	0.00386641	12	47.9582	0.000115439
2	1	0	1	0	1116.24	0.872723	0.871309	0.141749	1	0.00409066	12	49.5586	0.000123507
2	1	0	1	0	1117.84	0.912731	0.911342	0.143967	1	0.00431852	12	51.159	0.000131203
2	1	0	1	0	1119.44	0.95274	0.951314	0.145838	1	0.00454983	12	52.7594	0.000138738
2	1	0	0	0	1121.04	0.992749	0.991326	0.147337	1	0.00478439	12	54.3596	0.000146059
2	1	0	1	0	1122.59	0.968443	0.967048	0.142306	1	0.00500981	12	55.9126	0.000137616
2	1	0	1	0	1124.19	0.928434	0.927031	0.135834	1	0.00523136	12	57.5129	0.000125922
2	1	0	0	0	1125.79	0.888426	0.88702	0.129874	1	0.00544294	12	59.1132	0.000115201
2	1	0	0	0	1127.39	0.848418	0.846999	0.124227	1	0.00564527	12	60.7136	0.00010522
2	1	0	0	0	1128.99	0.808409	0.806931	0.118651	1	0.00583885	12	62.314	9.57434e-05
2	1	0	1	0	1130.59	0.7684	0.766889	0.113335	1	0.00602409	12	63.9142	8.69151e-05
2	1	0	1	0	1132.19	0.728392	0.726923	0.108058	1	0.00620138	12	65.5146	7.85501e-05
2	1	0	1	0	1133.8	0.688383	0.686849	0.103211	1	0.00637098	12	67.115	7.08904e-05
2	1	0	1	0	1135.4	0.648374	0.646912	0.0989234	1	0.00653314	12	68.7154	6.39947e-05
2	1	0	0	0	1137	0.608366	0.606902	0.0946399	1	0.00668804	12	70.3156	5.74371e-05
2	1	0	0	0	1138.6	0.568357	0.566823	0.0904938	1	0.00683591	12	71.916	5.1294e-05
2	1	0	0	0	1140.2	0.528349	0.526889	0.0861722	1	0.0069769	12	73.5164	4.54031e-05
2	1	0	1	0	1141.8	0.48834	0.486918	0.0817705	1	0.00711112	12	75.1167	3.98155e-05
2	1	0	1	0	1143.4	0.448331	0.446879	0.0779501	1	0.00723871	12	76.717	3.48343e-05
2	1	0	1	0	1145	0.408323	0.406832	0.0739231	1	0.00735979	12	78.3174	3.00743e-05
2	1	0	1	0	1146.6	0.368314	0.366834	0.0700928	1	0.00747442	12	79.9178	2.57124e-05
2	1	0	0	0	1148.2	0.328305	0.326839	0.0658541	1	0.00758266	12	81.518	2.15237e-05
2	1	0	0	0	1149.8	0.288297	0.28677	0.0614502	1	0.00768457	12	83.1184	1.76221e-05
2	1	0	0	0	1151.4	0.248288	0.246821	0.0573581	1	0.00778019	12	84.7188	1.41572e-05
2	1	0	0	0	1153	0.20828	0.206772	0.0536694	1	0.00786951	12	86.3192	1.10973e-05
2	1	0	1	0	1154.6	0.168271	0.16677	0.0501113	1	0.00795253	12	87.9194	8.35707e-06
2	1	0	1	0	1156.2	0.128262	0.126725	0.0465676	1	0.00802924	12	89.5198	5.90128e-06
2	1	0	1	0	1157.83	0.0874534	0.0859826	0.0409514	1	0.00810015	13	91.1522	3.52111e-06
2	1	0	1	0	1159.43	0.0474448	0.0458907	0.0370133	1	0.00816302	13	92.7526	1.69856e-06
2	1	0	0	0	1161.03	0.00743618	0.00587412	0.0328173	1	0.00821901	13	94.3528	1.92773e-07
2	1	0	0	0	1162.63	-0.0325725	-0.0342634	0.0281057	1	0.00826752	13	95.9532	-9.62998e-07
2	1	0	0	0	1164.23	-0.0725811	-0.074036	0.0228421	1	0.00830763	13	97.5536	-1.69114e-06
2	1	0	1	0	1165.83	-0.11259	-0.114078	0.0168044	1	0.00833842	13	99.1538	-1.91702e-06
2	1	0	1	0	1167.43	-0.152598	-0.154168	0.0109763	1	0.00835931	13	100.754	-1.69219e-06
2	1	0	1	0	1169.03	-0.192607	-0.194072	0.0060338	1	0.00837089	13	102.355	-1.17099e-06
2	1	0	1	0	1170.64	-0.232616	-0.234189	0.00327179	1	0.00837568	13	103.955	-7.66218e-07
2	1	0	0	0	1172.24	-0.272624	-0.274154	0.000822979	1	0.00837627	13	0.04	-2.25623e-07
2	0	0	0	0	1173.84	-0.312633	-0.314124	-0.00294765	1	0.00837215	13	1.6404	9.25926e-07
2	0	0	0	0	1175.44	-0.352642	-0.35415	-0.0072984	1	0.00836217	13	3.2408	2.58473e-06
2	0	0	0	0	1177.04	-0.39265	-0.394212	-0.0117354	1	0.00834604	13	4.8412	4.62623e-06
2	0	0	1	0	1178.64	-0.432659	-0.434187	-0.0158965	1	0.00832365	13	6.4414	6.90206e-06
2	0	0	1	0	1180.24	-0.472668	-0.474226	-0.0201185	1	0.00829495	13	8.0418	9.54071e-06
2	0	0	1	0	1181.84	-0.512676	-0.514098	-0.0244305	1	0.00825956	13	9.6422	1.25597e-05
2	0	0	0	0	1183.44	-0.552685	-0.554203	-0.0290048	1	0.00821714	13	11.2424	1.60745e-05
2	0	0	0	0	1185.04	-0.592693	-0.594154	-0.0334133	1	0.00816744	13	12.8428	1.98526e-05
2	0	0	0	0	1186.64	-0.632702	-0.634321	-0.0381291	1	0.00811027	13	14.4432	2.41861e-05
2	0	0	0	0	1188.24	-0.672711	-0.674275	-0.0424314	1	0.00804546	13	16.0436	2.86105e-05
2	0	0	1	0	1189.84	-0.712719	-0.714263	-0.0471434	1	0.00797289	13	17.6438	3.36728e-05
2	0	0	1	0	1191.44	-0.752728	-0.75425	-0.0519281	1	0.0078924	13	19.2442	3.91667e-05
2	0	0	1	0	1193.04	-0.792737	-0.794135	-0.0568957	1	0.00780391	13	20.8446	4.51828e-05
2	0	0	1	0	1194.64	-0.832745	-0.834246	-0.0620359	1	0.00770729	13	22.445	5.17532e-05
2	0	0	0	0	1196.24	-0.872754	-0.87423	-0.0671267	1	0.00760246	13	24.0452	5.86841e-05
2	0	0	0	0	1197.84	-0.912763	-0.914211	-0.0723616	1	0.00748927	13	25.6456	6.61538e-05
2	0	0	0	0	1199.44	-0.952771	-0.954234	-0.0780608	1	0.00736749	13	27.246	7.44883e-05
2	0	0	1	0	1201.04	-0.992782	-0.994355	-0.0841633	1	0.00723666	13	28.8463	8.36883e-05
2	0	0	0	1	1202.59	-0.968475	-0.970002	-0.0796204	1	0.00710874	13	30.3992	7.72319e-05
2	0	0	1	1	1204.19	-0.928466	-0.929987	-0.0729405	1	0.00698789	13	31.9994	6.78337e-05
2	0	0	1	1	1205.8	-0.888457	-0.890045	-0.0665015	1	0.00687705	13	33.5998	5.91894e-05
2	0	0	1	1	1207.4	-0.848449	-0.849959	-0.0603691	1	0.0067758	13	35.2002	5.13113e-05
2	0	0	1	1	1209	-0.808438	-0.809907	-0.054743	1	0.00668389	13	36.8005	4.43367e-05
2	0	0	0	1	1210.6	-0.768431	-0.769889	-0.0489599	1	0.00660116	13	38.4008	3.76937e-05
2	0	0	0	1	1212.2	-0.728423	-0.729858	-0.0432192	1	0.0065275	13	40.0012	3.15439e-05
2	0	0	0	1	1213.8	-0.688414	-0.689877	-0.037502	1	0.00646284	13	41.6016	2.58718e-05
2	0	0	1	1	1215.4	-0.648405	-0.649875	-0.0320759	1	0.00640713	13	43.2018	2.08453e-05
2	0	0	1	1	1217	-0.608397	-0.609831	-0.0266227	1	0.00636031	13	44.8022	1.62354e-05
2	0	0	1	1	1218.6	-0.568388	-0.56989	-0.0210819	1	0.00632235	13	46.4026	1.20143e-05
2	0	0	1	1	1220.2	-0.52838	-0.529895	-0.015493	1	0.00629322	13	48.003	8.20964e-06
2	0	0	0	1	1221.8	-0.488371	-0.489853	-0.00987235	1	0.00627294	13	49.6032	4.836e-06
2	0	0	0	1	1223.4	-0.448362	-0.449838	-0.00437264	1	0.00626152	13	51.2036	1.96698e-06
2	0	0	0	1	1225	-0.408354	-0.409833	0.00138848	1	0.00625904	13	0.2401	-5.69045e-07
2	0	0	1	1	1226.59	-0.368695	-0.370203	0.00575523	1	0.00626554	13	1.8263	-2.1306e-06
2	1	0	1	1	1228.14	-0.329937	-0.331435	0.0112731	2	0.00628062	13	3.3767	-3.7363e-06
2	1	0	1	1	1229.74	-0.289928	-0.291396	0.017164	2	0.0063053	13	4.9771	-5.00151e-06
2	1	0	1	1	1231.34	-0.249919	-0.2514	0.0229121	2	0.00633928	13	6.5775	-5.7601e-06
2	1	0	0	1	1232.94	-0.209911	-0.211597	0.0284508	2	0.00638248	13	8.1777	-6.02011e-06
2	1	0	0	1	1234.54	-0.169902	-0.171491	0.0340844	2	0.00643471	13	9.7781	-5.84515e-06
2	1	0	0	1	1236.14	-0.129893	-0.131477	0.0395998	2	0.00649573	13	11.3785	-5.20647e-06
2	1	0	0	1	1237.74	-0.0898848	-0.0914394	0.0450298	2	0.0065654	13	12.9789	-4.11749e-06
2	1	0	1	1	1239.34	-0.0498762	-0.0515183	0.0504043	2	0.00664379	13	14.5791	-2.59674e-06
2	1	0	1	1	1240.94	-0.00986756	-0.0114083	0.0556857	2	0.00673079	13	16.1795	-6.35281e-07
2	1	0	1	1	1242.54	0.0301411	0.0286656	0.0605951	2	0.00682581	13	17.7799	1.73699e-06
2	1	0	0	1	1244.14	0.0701497	0.068593	0.0654754	2	0.00692851	13	19.3801	4.49115e-06
2	1	0	0	1	1245.74	0.110158	0.108601	0.0704389	2	0.00703901	13	20.9805	7.64973e-06
2	1	0	0	1	1247.34	0.150167	0.148828	0.0753495	2	0.00715739	13	22.5809	1.12141e-05
2	1	0	0	1	1248.94	0.190176	0.188797	0.0803396	2	0.0072835	13	24.1813	1.51678e-05
2	1	0	1	1	1250.54	0.230184	0.22866	0.0850034	2	0.0074171	13	25.7815	1.94369e-05
2	1	0	1	1	1252.14	0.270193	0.268701	0.08939	2	0.00755797	13	27.3819	2.40192e-05
2	1	0	1	1	1253.77	0.310902	0.309434	0.0946314	2	0.00770932	12	29.0103	2.92822e-05
2	1	0	1	1	1255.37	0.35091	0.349456	0.0990269	2	0.00786486	12	30.6107	3.46055e-05
2	1	0	0	1	1256.97	0.390919	0.389424	0.102876	2	0.00802695	12	32.2109	4.00622e-05
2	1	0	0	1	1258.57	0.430928	0.429446	0.106764	2	0.00819538	12	33.8113	4.58491e-05
2	1	0	0	1	1260.17	0.470936	0.469403	0.11051	2	0.00836987	12	35.4117	5.18738e-05
2	1	0	1	1	1261.77	0.510945	0.509431	0.114087	2	0.00855011	12	37.0119	5.81197e-05
2	1	0	1	1	1263.37	0.550953	0.549488	0.117322	2	0.00873589	12	38.6123	6.44671e-05
2	1	0	1	1	1264.97	0.590962	0.589499	0.120179	2	0.00892686	12	40.2127	7.08452e-05
2	1	0	1	1	1266.57	0.630971	0.629518	0.123261	2	0.00912276	12	41.8131	7.7595e-05
2	1	0	0	1	1268.17	0.670979	0.66952	0.126181	2	0.00932326	12	43.4133	8.44808e-05
2	1	0	0	1	1269.77	0.710988	0.709579	0.129097	2	0.00952811	12	45.0137	9.16041e-05
2	1	0	0	1	1271.37	0.750997	0.749473	0.131576	2	0.009737	12	46.6141	9.8613e-05
2	1	0	0	1	1272.97	0.791005	0.789525	0.134141	2	0.00994964	12	48.2145	0.000105908
2	1	0	1	1	1274.57	0.831014	0.829582	0.135888	2	0.0101657	12	49.8147	0.00011273
2	1	0	1	1	1276.17	0.871022	0.869644	0.138288	2	0.0103851	12	51.4151	0.000120261
2	1	0	1	1	1277.77	0.911031	0.90967	0.14021	2	0.0106076	12	53.0155	0.000127545
2	1	0	1	1	1279.38	0.95104	0.949615	0.141768	2	0.0108327	12	54.6158	0.000134625
2	1	0	0	1	1280.98	0.991048	0.989644	0.143398	2	0.0110605	12	56.2161	0.000141913
2	1	0	1	1	1282.52	0.970444	0.969037	0.137623	2	0.0112776	12	57.7571	0.000133362
2	1	0	0	1	1284.12	0.930435	0.929019	0.131132	2	0.0114922	12	59.3573	0.000121824
2	1	0	0	1	1285.72	0.890427	0.888932	0.124765	2	0.0116969	12	60.9577	0.000110908
2	1	0	0	1	1287.32	0.850418	0.848948	0.118993	2	0.0118922	12	62.5581	0.000101019
2	1	0	0	1	1288.92	0.810409	0.809027	0.113988	2	0.0120789	12	64.1585	9.22197e-05
2	1	0	1	1	1290.52	0.770401	0.768973	0.108752	2	0.0122574	12	65.7587	8.36276e-05
2	1	0	1	1	1292.12	0.730392	0.728936	0.104021	2	0.012428	12	67.3591	7.5825e-05
2	1	0	1	1	1293.72	0.690383	0.68893	0.0995147	2	0.0125911	12	68.9595	6.85587e-05
2	1	0	1	1	1295.32	0.650377	0.648895	0.0947112	2	0.012747	12	70.5598	6.14576e-05
2	1	0	0	1	1296.92	0.610366	0.608873	0.0905294	2	0.0128958	12	72.1601	5.51209e-05
2	1	0	0	1	1298.52	0.570358	0.568893	0.086457	2	0.0130378	12	73.7605	4.91848e-05
2	1	0	0	1	1300.12	0.530349	0.528903	0.0823718	2	0.0131731	12	75.3609	4.35667e-05
2	1	0	1	1	1301.72	0.49034	0.488775	0.0782588	2	0.0133019	12	76.9611	3.8251e-05
2	1	0	1	1	1303.32	0.450332	0.448863	0.0745834	2	0.0134244	12	78.5615	3.34777e-05
2	1	0	1	1	1304.92	0.410323	0.408843	0.0710037	2	0.0135405	12	80.1619	2.90294e-05
2	1	0	1	1	1306.52	0.370314	0.368887	0.0672607	2	0.0136505	12	81.7623	2.48116e-05
2	1	0	0	1	1308.12	0.330306	0.328848	0.0633776	2	0.0137543	12	83.3625	2.08416e-05
2	1	0	0	1	1309.72	0.290297	0.288748	0.0594644	2	0.0138521	12	84.9629	1.71702e-05
2	1	0	0	1	1311.32	0.250289	0.248782	0.0557911	2	0.0139439	12	86.5633	1.38798e-05
2	1	0	1	1	1312.92	0.210282	0.208756	0.0519835	2	0.0140297	12	88.1636	1.08518e-05
2	1	0	1	1	1314.52	0.170271	0.16879	0.0481419	2	0.0141094	12	89.7639	8.12589e-06
2	1	0	1	1	1316.15	0.129563	0.12821	0.0444372	2	0.0141839	13	91.3923	5.69731e-06
2	1	0	1	1	1317.75	0.0895539	0.0882416	0.0407045	2	0.0142507	13	92.9927	3.59183e-06
2	1	0	0	1	1319.35	0.0495453	0.0480361	0.0365749	2	0.0143112	13	94.5929	1.75692e-06
2	1	0	0	1	1320.95	0.00953663	0.00801639	0.0321906	2	0.0143652	13	96.1933	2.58052e-07
2	1	0	0	1	1322.55	-0.030472	-0.0320511	0.0271219	2	0.014412	13	97.7937	-8.69286e-07
2	1	0	0	1	1324.15	-0.0704807	-0.072055	0.0219695	2	0.0144508	13	99.3941	-1.58301e-06
2	1	0	1	1	1325.75	-0.110489	-0.112142	0.0158759	2	0.0144805	13	100.994	-1.78034e-06
2	1	0	1	1	1327.35	-0.150498	-0.152209	0.00973877	2	0.0145007	13	102.595	-1.48233e-06
2	1	0	1	1	1328.95	-0.190507	-0.19214	0.00471738	2	0.0145121	13	104.195	-9.06397e-07
2	1	0	1	1	1330.55	-0.230515	-0.232116	0.0019321	2	0.0145172	13	105.795	-4.48471e-07
2	1	0	0	1	1332.16	-0.270524	-0.272013	-0.000516299	2	0.0145183	13	0.000000000000000E+000	1.4044e-07
2	1	0	0	1	1333.76	-0.310533	-0.312114	-0.00394972	2	0.0145147	13	1.5604	1.23276e-06
2	1	0	0	1	1335.36	-0.350541	-0.35218	-0.0076209	2	0.0145054	13	3.1608	2.68393e-06
2	0	0	1	1	1336.96	-0.39055	-0.39226	-0.0113492	2	0.0144902	13	4.761	4.45185e-06
2	0	0	1	1	1338.56	-0.430558	-0.432147	-0.0145072	2	0.014469	13	6.3614	6.26924e-06
2	0	0	1	1	1340.16	-0.470567	-0.47203	-0.0180428	2	0.0144419	13	7.9618	8.51674e-06
2	0	0	1	1	1341.76	-0.510576	-0.512095	-0.022028	2	0.0144084	13	9.5622	1.12805e-05
2	0	0	0	1	1343.36	-0.550584	-0.55205	-0.0263601	2	0.0143681	13	11.1624	1.45521e-05
2	0	0	0	1	1344.96	-0.590593	-0.592064	-0.0312212	2	0.0143208	13	12.7628	1.84849e-05
2	0	0	0	1	1346.56	-0.630602	-0.632142	-0.0364168	2	0.0142663	13	14.3632	2.30206e-05
2	0	0	0	1	1348.16	-0.67061	-0.672127	-0.0414734	2	0.0142044	13	15.9636	2.78754e-05
2	0	0	1	1	1349.76	-0.710619	-0.712152	-0.0463168	2	0.0141349	13	17.5638	3.29846e-05
2	0	0	1	1	1351.36	-0.750628	-0.752239	-0.051139	2	0.0140578	13	19.1642	3.84688e-05
2	0	0	1	1	1352.96	-0.790636	-0.792095	-0.0559087	2	0.0139728	13	20.7646	4.4285e-05
2	0	0	1	1	1354.56	-0.830647	-0.832267	-0.0606433	2	0.0138799	13	22.3649	5.04715e-05
2	0	0	0	1	1356.16	-0.870654	-0.872291	-0.0654326	2	0.0137789	13	23.9652	5.70763e-05
2	0	0	0	1	1357.76	-0.910662	-0.912176	-0.070791	2	0.0136696	13	25.5656	6.45738e-05
2	0	0	0	1	1359.36	-0.950671	-0.952232	-0.0762367	2	0.0135516	13	27.166	7.2595e-05
2	0	0	1	1	1360.96	-0.99068	-0.992235	-0.0819809	2	0.0134244	13	28.7662	8.13443e-05
2	0	0	1	0	1362.52	-0.970474	-0.971992	-0.0763831	2	0.0132987	13	30.3231	7.42437e-05
2	0	0	1	0	1364.12	-0.930466	-0.932015	-0.070129	2	0.0131803	13	31.9234	6.53613e-05
2	0	0	1	0	1365.72	-0.890458	-0.892014	-0.0642609	2	0.0130718	13	33.5238	5.73216e-05
2	0	0	1	0	1367.32	-0.850449	-0.85201	-0.0586208	2	0.0129728	13	35.1242	4.99455e-05
2	0	0	0	0	1368.92	-0.810441	-0.811948	-0.0527321	2	0.0128829	13	36.7244	4.28157e-05
2	0	0	0	0	1370.52	-0.770432	-0.771965	-0.047225	2	0.012802	13	38.3248	3.64561e-05
2	0	0	0	0	1372.12	-0.730423	-0.73195	-0.0416976	2	0.0127299	13	39.9252	3.05206e-05
2	0	0	0	0	1373.72	-0.690415	-0.691947	-0.0363046	2	0.0126665	13	41.5256	2.51208e-05
2	0	0	1	0	1375.32	-0.650406	-0.651945	-0.0307302	2	0.0126119	13	43.1258	2.00344e-05
2	0	0	1	0	1376.92	-0.610397	-0.611875	-0.0251739	2	0.0125659	13	44.7262	1.54033e-05
2	0	0	1	0	1378.52	-0.570389	-0.571961	-0.0196665	2	0.0125285	13	46.3266	1.12485e-05
2	0	0	1	0	1380.12	-0.530379	-0.531843	-0.0146753	2	0.0124998	13	47.9269	7.80498e-06
2	0	0	0	0	1381.72	-0.490371	-0.491939	-0.00931862	2	0.0124797	13	49.5272	4.58419e-06
2	0	0	0	0	1383.32	-0.450363	-0.451964	-0.00402622	2	0.0124682	13	51.1276	1.81971e-06
2	1	0	0	0	1384.92	-0.410354	-0.411837	0.00142796	2	0.0124654	13	0.08	-5.88086e-07
2	1	0	1	0	1386.52	-0.370345	-0.371774	0.00671338	2	0.0124716	13	1.6802	-2.49586e-06
2	1	0	1	0	1388.06	-0.331937	-0.333455	0.0120758	3	0.0124859	13	3.2166	-4.02674e-06
2	1	0	1	0	1389.66	-0.291929	-0.2935	0.0174361	3	0.0125098	13	4.817	-5.1175e-06
2	1	0	1	0	1391.26	-0.25192	-0.253491	0.0228334	3	0.0125427	13	6.4174	-5.78807e-06
2	1	0	0	0	1392.86	-0.211911	-0.213517	0.0285128	3	0.0125846	13	8.0176	-6.08797e-06
2	1	0	0	0	1394.46	-0.171903	-0.17339	0.0338656	3	0.0126354	13	9.618	-5.87196e-06
2	1	0	0	0	1396.06	-0.131894	-0.13336	0.0393047	3	0.0126948	13	11.2184	-5.24166e-06
2	1	0	1	0	1397.66	-0.0918853	-0.0935604	0.0446775	3	0.0127626	13	12.8186	-4.18004e-06
2	1	0	1	0	1399.26	-0.0518766	-0.0533688	0.0503768	3	0.0128389	13	14.419	-2.68855e-06
2	1	0	1	0	1400.86	-0.011868	-0.0133713	0.0558341	3	0.0129236	13	16.0194	-7.46573e-07
2	1	0	1	0	1402.46	0.0281406	0.026745	0.0599839	3	0.013016	13	17.6198	1.60427e-06
2	1	0	0	0	1404.06	0.0681493	0.0667542	0.0639619	3	0.0131159	13	19.22	4.26973e-06
2	1	0	0	0	1405.66	0.108158	0.106526	0.0682735	3	0.0132234	13	20.8204	7.27288e-06
2	1	0	0	0	1407.26	0.148167	0.146683	0.073676	3	0.0133385	13	22.4208	1.0807e-05
2	1	0	0	0	1408.86	0.188175	0.186786	0.078793	3	0.0134611	13	24.0212	1.47174e-05
2	1	0	1	0	1410.46	0.228184	0.226684	0.0833395	3	0.0135909	13	25.6214	1.88917e-05
2	1	0	1	0	1412.06	0.268192	0.26672	0.0874954	3	0.0137278	13	27.2218	2.33368e-05
2	1	0	1	0	1413.67	0.308201	0.306663	0.0914288	3	0.0138713	13	28.8222	2.80378e-05
2	1	0	0	0	1415.29	0.34891	0.347367	0.0958506	3	0.0140252	12	30.4504	3.32953e-05
2	1	0	0	0	1416.89	0.388918	0.387469	0.0994225	3	0.0141823	12	32.0508	3.85232e-05
2	1	0	0	0	1418.49	0.428927	0.427453	0.103002	3	0.0143455	12	33.6512	4.40286e-05
2	1	0	0	0	1420.09	0.468936	0.467391	0.106565	3	0.0145143	12	35.2516	4.98074e-05
2	1	0	1	0	1421.69	0.508944	0.507463	0.1099	3	0.0146885	12	36.8518	5.57702e-05
2	1	0	1	0	1423.3	0.548953	0.54752	0.113128	3	0.0148679	12	38.4522	6.19399e-05
2	1	0	1	0	1424.9	0.588962	0.587531	0.116301	3	0.0150522	12	40.0526	6.83302e-05
2	1	0	1	0	1426.5	0.62897	0.627459	0.119099	3	0.015241	12	41.653	7.473e-05
2	1	0	0	0	1428.1	0.668979	0.667545	0.121819	3	0.0154339	12	43.2532	8.13199e-05
2	1	0	0	0	1429.7	0.708987	0.707532	0.124134	3	0.0156309	12	44.8536	8.78288e-05
2	1	0	0	0	1431.3	0.748996	0.747498	0.12632	3	0.0158315	12	46.454	9.44239e-05
2	1	0	1	0	1432.9	0.789006	0.787514	0.128318	3	0.0160355	12	48.0543	0.000101052
2	1	0	1	0	1434.5	0.829013	0.827664	0.130249	3	0.0162426	12	49.6546	0.000107802
2	1	0	1	0	1436.1	0.869022	0.867578	0.131809	3	0.0164526	12	51.255	0.000114355
2	1	0	1	0	1437.7	0.909031	0.907537	0.133514	3	0.0166652	12	52.8554	0.000121169
2	1	0	0	0	1439.3	0.949039	0.947605	0.134935	3	0.0168803	12	54.4556	0.000127865
2	1	0	0	0	1440.9	0.989048	0.987612	0.136462	3	0.0170977	12	56.056	0.000134771
2	1	0	1	0	1442.44	0.972444	0.971028	0.131367	3	0.0173053	12	57.597	0.000127561
2	1	0	0	0	1444.04	0.932436	0.931053	0.124988	3	0.0175105	12	59.1972	0.000116371
2	1	0	0	0	1445.64	0.892427	0.890982	0.119	3	0.0177059	12	60.7976	0.000106026
2	1	0	0	0	1447.24	0.852418	0.851002	0.11365	3	0.0178924	12	62.398	9.67163e-05
2	1	0	1	0	1448.84	0.812411	0.810968	0.108484	3	0.0180704	12	63.9983	8.79774e-05
2	1	0	1	0	1450.44	0.772401	0.770976	0.10399	3	0.0182405	12	65.5986	8.0174e-05
2	1	0	1	0	1452.04	0.732393	0.73089	0.0994951	3	0.018403	12	67.199	7.27199e-05
2	1	0	1	0	1453.64	0.692384	0.690883	0.0950424	3	0.0185583	12	68.7994	6.56631e-05
2	1	0	0	0	1455.24	0.652375	0.650898	0.0909041	3	0.0187065	12	70.3996	5.91693e-05
2	1	0	0	0	1456.84	0.612367	0.610959	0.0869263	3	0.018848	12	72	5.31084e-05
2	1	0	0	0	1458.44	0.572358	0.570838	0.0825784	3	0.018983	12	73.6004	4.71389e-05
2	1	0	0	0	1460.04	0.532349	0.530874	0.0783283	3	0.0191116	12	75.2008	4.15824e-05
2	1	0	1	0	1461.64	0.492341	0.490885	0.0743078	3	0.019234	12	76.801	3.64766e-05
2	1	0	1	0	1463.24	0.452332	0.450821	0.0705361	3	0.0193504	12	78.4014	3.17991e-05
2	1	0	1	0	1464.84	0.412323	0.410877	0.0668509	3	0.0194608	12	80.0018	2.74675e-05
2	1	0	1	0	1466.45	0.372315	0.370862	0.0634542	3	0.0195654	12	81.6022	2.35327e-05
2	1	0	0	0	1468.05	0.332306	0.330824	0.0600405	3	0.0196642	12	83.2024	1.98628e-05
2	1	0	0	0	1469.65	0.292298	0.290766	0.0566294	3	0.0197573	12	84.8028	1.64659e-05
2	1	0	0	0	1471.25	0.252289	0.250831	0.053082	3	0.0198447	12	86.4032	1.33146e-05
2	1	0	1	0	1472.85	0.21228	0.210785	0.0496499	3	0.0199264	12	88.0034	1.04654e-05
2	1	0	1	0	1474.45	0.172272	0.17073	0.0460362	3	0.0200026	12	89.6038	7.85976e-06
2	1	0	1	0	1476.08	0.131463	0.129986	0.04197	3	0.020074	13	91.2362	5.4555e-06
2	1	0	1	0	1477.68	0.0914543	0.0900751	0.0384827	3	0.0201378	13	92.8366	3.46633e-06
2	1	0	0	0	1479.28	0.0514457	0.0500553	0.0347998	3	0.0201957	13	94.4368	1.74192e-06
2	1	0	0	0	1480.88	0.011437	0.00997934	0.0306451	3	0.0202475	13	96.0372	3.05817e-07
2	1	0	0	0	1482.48	-0.0285716	-0.0301858	0.0255792	3	0.0202924	13	97.6376	-7.7213e-07
2	1	0	0	0	1484.08	-0.0685802	-0.070195	0.0205097	3	0.0203297	13	99.238	-1.43968e-06
2	1	0	1	0	1485.68	-0.108589	-0.110252	0.0153592	3	0.0203584	13	100.838	-1.69339e-06
2	1	0	1	0	1487.28	-0.148598	-0.150017	0.0108761	3	0.0203781	13	102.439	-1.6316e-06
2	1	0	1	0	1488.88	-0.188606	-0.190204	0.00653696	3	0.0203895	13	104.039	-1.24336e-06
2	1	0	0	0	1490.48	-0.228615	-0.230166	0.00333922	3	0.0203952	13	105.639	-7.68575e-07
2	1	0	0	0	1492.08	-0.268623	-0.270177	-5.19422e-05	3	0.020397	13	0.000000000000000E+000	1.40336e-08
2	1	0	0	0	1493.68	-0.308632	-0.310087	-0.00393774	3	0.0203939	13	1.3604	1.22104e-06
2	1	0	0	0	1495.28	-0.348641	-0.35033	-0.00729942	3	0.0203851	13	2.9608	2.55721e-06
2	0	0	1	0	1496.88	-0.388649	-0.390275	-0.0102338	3	0.0203707	13	4.561	3.994e-06
2	0	0	1	0	1498.48	-0.428658	-0.430135	-0.0133467	3	0.0203506	13	6.1614	5.74088e-06
2	0	0	1	0	1500.08	-0.468667	-0.470115	-0.0175044	3	0.0203248	13	7.7618	8.22909e-06
2	0	0	1	0	1501.68	-0.508675	-0.510322	-0.0224067	3	0.0202928	13	9.3622	1.14346e-05
2	0	0	0	0	1503.29	-0.548684	-0.55033	-0.0266928	3	0.0202544	13	10.9624	1.46898e-05
2	0	0	0	0	1504.89	-0.588693	-0.59015	-0.0304736	3	0.0202092	13	12.5628	1.7984e-05
2	0	0	0	0	1506.49	-0.628701	-0.630218	-0.0344077	3	0.020157	13	14.1632	2.16844e-05
2	0	0	1	0	1508.09	-0.668711	-0.670193	-0.0389041	3	0.0200976	13	15.7635	2.60733e-05
2	0	0	1	0	1509.69	-0.708719	-0.710215	-0.0436972	3	0.0200309	13	17.3638	3.10344e-05
2	0	0	1	0	1511.29	-0.748727	-0.750148	-0.0482431	3	0.0199566	13	18.9642	3.61895e-05
2	0	0	1	0	1512.89	-0.788736	-0.790192	-0.053238	3	0.0198746	13	20.5646	4.20682e-05
2	0	0	0	0	1514.49	-0.828744	-0.830274	-0.0579859	3	0.0197848	13	22.1648	4.81442e-05
2	0	0	0	0	1516.09	-0.868753	-0.870351	-0.0633494	3	0.019687	13	23.7652	5.51362e-05
2	0	0	0	0	1517.69	-0.908762	-0.910307	-0.0692102	3	0.0195808	13	25.3656	6.30025e-05
2	0	0	0	0	1519.29	-0.94877	-0.950293	-0.0751297	3	0.0194656	13	26.966	7.13952e-05
2	0	0	1	0	1520.89	-0.988779	-0.990358	-0.0813449	3	0.0193411	13	28.5662	8.05605e-05
2	0	0	1	1	1522.44	-0.972476	-0.97388	-0.0757967	3	0.0192173	13	30.119	7.38169e-05
2	0	0	1	1	1524.04	-0.932467	-0.933921	-0.0697677	3	0.0191005	13	31.7194	6.51575e-05
2	0	0	1	1	1525.64	-0.892458	-0.894014	-0.0644559	3	0.0189937	13	33.3198	5.76245e-05
2	0	0	1	1	1527.24	-0.85245	-0.854016	-0.0588909	3	0.0188963	13	34.9202	5.02938e-05
2	0	0	0	1	1528.84	-0.812441	-0.814081	-0.0532934	3	0.0188079	13	36.5204	4.33851e-05
2	0	0	0	1	1530.44	-0.772432	-0.774131	-0.047615	3	0.0187282	13	38.1208	3.68602e-05
2	0	0	0	1	1532.04	-0.732424	-0.733842	-0.0413743	3	0.0186572	13	39.7212	3.03622e-05
2	0	0	1	1	1533.64	-0.692415	-0.693884	-0.0359226	3	0.0185948	13	41.3215	2.49262e-05
2	0	0	1	1	1535.24	-0.652406	-0.653902	-0.0307763	3	0.0185409	13	42.9218	2.01247e-05
2	0	0	1	1	1536.84	-0.612398	-0.613891	-0.0261606	3	0.0184954	13	44.5222	1.60598e-05
2	0	0	1	1	1538.45	-0.572389	-0.573998	-0.021605	3	0.0184584	13	46.1226	1.24012e-05
2	0	0	0	1	1540.05	-0.53238	-0.533973	-0.0164854	3	0.0184299	13	47.7228	8.80277e-06
2	0	0	0	1	1541.65	-0.492372	-0.494032	-0.0113466	3	0.0184098	13	49.3232	5.60558e-06
2	0	0	0	1	1543.25	-0.452363	-0.454	-0.00581762	3	0.0183981	13	50.9236	2.6412e-06
2	0	0	0	1	1544.85	-0.412355	-0.41388	-0.000203468	3	0.0183951	13	0.04	8.42115e-08
2	1	0	1	1	1546.45	-0.372346	-0.373846	0.00512944	3	0.0184008	13	1.6402	-1.91762e-06
2	0	0	1	1	1547.98	-0.333938	-0.335592	0.0113557	4	0.0184145	13	3.1766	-3.81087e-06
2	0	0	1	1	1549.58	-0.293929	-0.295538	0.0169324	4	0.0184375	13	4.777	-5.00418e-06
2	1	0	0	1	1551.18	-0.25392	-0.255544	0.0224558	4	0.0184695	13	6.3772	-5.73846e-06
2	1	0	0	1	1552.78	-0.213912	-0.215367	0.0279592	4	0.0185103	13	7.9776	-6.02149e-06
2	1	0	0	1	1554.38	-0.173903	-0.175372	0.0332555	4	0.0185597	13	9.578	-5.83208e-06
2	1	0	0	1	1555.99	-0.133894	-0.135519	0.0386697	4	0.0186177	13	11.1784	-5.24047e-06
2	1	0	1	1	1557.59	-0.0938857	-0.095395	0.0437414	4	0.0186838	13	12.7786	-4.17271e-06
2	1	0	1	1	1559.19	-0.0538771	-0.0553158	0.0488082	4	0.0187582	13	14.379	-2.69986e-06
2	1	0	1	1	1560.79	-0.0138684	-0.015347	0.0538194	4	0.0188408	13	15.9794	-8.25964e-07
2	1	0	1	1	1562.39	0.0261402	0.0247121	0.0585834	4	0.0189309	13	17.5798	1.44772e-06
2	1	0	0	1	1563.99	0.0661488	0.0645896	0.0629802	4	0.0190284	13	19.18	4.06787e-06
2	1	0	0	1	1565.59	0.106157	0.104746	0.0677078	4	0.0191332	13	20.7804	7.09214e-06
2	1	0	0	1	1567.19	0.146166	0.144747	0.0723024	4	0.0192455	13	22.3808	1.04655e-05
2	1	0	1	1	1568.79	0.186175	0.184808	0.0767806	4	0.019365	13	23.981	1.41897e-05
2	1	0	1	1	1570.39	0.226183	0.224688	0.0812393	4	0.0194916	13	25.5814	1.82535e-05
2	1	0	1	1	1571.99	0.266192	0.264694	0.0853648	4	0.0196249	13	27.1818	2.25955e-05
2	1	0	1	1	1573.59	0.306201	0.304696	0.0892783	4	0.0197647	13	28.7822	2.72028e-05
2	1	0	0	1	1575.19	0.346209	0.344675	0.0930117	4	0.0199107	13	30.3824	3.20588e-05
2	1	0	0	1	1576.82	0.386918	0.385507	0.0966809	4	0.0200667	12	32.0108	3.72712e-05
2	1	0	0	1	1578.42	0.426927	0.425479	0.100117	4	0.0202253	12	33.6112	4.25978e-05
2	1	0	0	1	1580.02	0.466935	0.465351	0.103225	4	0.0203892	12	35.2116	4.80358e-05
2	1	0	1	1	1581.62	0.506944	0.505362	0.106325	4	0.0205583	12	36.8118	5.37324e-05
2	1	0	1	1	1583.22	0.546953	0.545478	0.109521	4	0.0207322	12	38.4122	5.97414e-05
2	1	0	1	1	1584.82	0.586961	0.58548	0.112515	4	0.0209107	12	40.0126	6.5875e-05
2	1	0	1	1	1586.42	0.626971	0.625557	0.115005	4	0.0210933	12	41.6129	7.19424e-05
2	1	0	0	1	1588.02	0.666978	0.665499	0.117569	4	0.0212799	12	43.2132	7.82422e-05
2	1	0	0	1	1589.62	0.706987	0.705452	0.119767	4	0.02147	12	44.8136	8.44898e-05
2	1	0	0	1	1591.22	0.746996	0.745559	0.121702	4	0.0216635	12	46.414	9.07359e-05
2	1	0	1	1	1592.82	0.787004	0.785554	0.123525	4	0.0218599	12	48.0142	9.70353e-05
2	1	0	1	1	1594.42	0.827013	0.825604	0.12514	4	0.0220592	12	49.6146	0.000103316
2	1	0	1	1	1596.02	0.867022	0.865602	0.126653	4	0.0222609	12	51.215	0.000109631
2	1	0	1	1	1597.62	0.90703	0.905616	0.128003	4	0.0224649	12	52.8154	0.000115921
2	1	0	0	1	1599.22	0.947039	0.94562	0.129187	4	0.0226708	12	54.4156	0.000122162
2	1	0	0	1	1600.82	0.987047	0.985612	0.130048	4	0.0228785	12	56.016	0.000128176
2	1	0	1	1	1602.36	0.974445	0.973056	0.125156	4	0.0230768	12	57.5569	0.000121784
2	1	0	0	1	1603.96	0.934436	0.933041	0.118804	4	0.0232724	12	59.1572	0.000110849
2	1	0	0	1	1605.56	0.894427	0.893034	0.113106	4	0.0234583	12	60.7576	0.000101008
2	1	0	0	1	1607.16	0.854419	0.853039	0.108088	4	0.0236353	12	62.358	9.22035e-05
2	1	0	1	1	1608.76	0.81441	0.812994	0.10332	4	0.0238041	12	63.9582	8.39986e-05
2	1	0	1	1	1610.37	0.774402	0.772916	0.0985435	4	0.0239652	12	65.5586	7.61659e-05
2	1	0	1	1	1611.97	0.734393	0.73294	0.0940584	4	0.024119	12	67.159	6.89392e-05
2	1	0	1	1	1613.57	0.694384	0.692864	0.0898625	4	0.0242658	12	68.7594	6.22624e-05
2	1	0	0	1	1615.17	0.654376	0.652896	0.0860081	4	0.0244059	12	70.3596	5.61544e-05
2	1	0	0	1	1616.77	0.614367	0.612921	0.0823259	4	0.0245397	12	71.96	5.04593e-05
2	1	0	0	1	1618.37	0.574358	0.57286	0.0785483	4	0.0246673	12	73.5604	4.49971e-05
2	1	0	0	1	1619.97	0.53435	0.532788	0.0745289	4	0.0247888	12	75.1608	3.97081e-05
2	1	0	1	1	1621.57	0.494341	0.492812	0.0706524	4	0.0249046	12	76.761	3.48184e-05
2	1	0	1	1	1623.17	0.454333	0.452875	0.0667426	4	0.0250147	12	78.3614	3.0226e-05
2	1	0	1	1	1624.77	0.414324	0.412878	0.0631411	4	0.0251192	12	79.9618	2.60696e-05
2	1	0	0	1	1626.37	0.374315	0.372749	0.0597483	4	0.0252183	12	81.562	2.22711e-05
2	1	0	0	1	1627.97	0.334307	0.332844	0.0566391	4	0.025312	12	83.1624	1.8852e-05
2	1	0	0	1	1629.57	0.294298	0.292856	0.0536301	4	0.0254003	12	84.7628	1.57059e-05
2	1	0	0	1	1631.17	0.254289	0.252795	0.0505928	4	0.0254834	12	86.3632	1.27896e-05
2	1	0	1	1	1632.8	0.213581	0.212007	0.0468645	4	0.0255624	13	87.9914	9.93561e-06
2	1	0	1	1	1634.4	0.173572	0.172089	0.0437723	4	0.025634	13	89.5918	7.53274e-06
2	1	0	1	1	1636	0.133563	0.132056	0.0405227	4	0.0257004	13	91.1922	5.35125e-06
2	1	0	1	1	1637.6	0.0935548	0.0921738	0.0372659	4	0.0257614	13	92.7926	3.43494e-06
2	1	0	0	1	1639.2	0.0535461	0.0521042	0.0336648	4	0.0258168	13	94.3928	1.75408e-06
2	1	0	0	1	1640.8	0.0135375	0.0121343	0.0300089	4	0.0258664	13	95.9932	3.64138e-07
2	1	0	0	1	1642.4	-0.0264711	-0.0279597	0.0257878	4	0.0259096	13	97.5936	-7.21019e-07
2	1	0	1	1	1644	-0.0664798	-0.0680198	0.0206478	4	0.0259455	13	99.1938	-1.40446e-06
2	1	0	1	1	1645.6	-0.106488	-0.108052	0.0152392	4	0.0259733	13	100.794	-1.64663e-06
2	1	0	1	1	1647.2	-0.146497	-0.148122	0.0101475	4	0.0259926	13	102.395	-1.50307e-06
2	1	0	1	1	1648.8	-0.186506	-0.188095	0.0059117	4	0.0260042	13	103.995	-1.11196e-06
2	1	0	0	1	1650.4	-0.226514	-0.228189	0.00282677	4	0.0260104	13	105.595	-6.45037e-07
2	1	0	0	1	1652	-0.266523	-0.268228	-1.98372e-05	4	0.0260126	13	0.000000000000000E+000	5.32089e-09
2	1	0	0	1	1653.6	-0.306532	-0.308171	-0.00327785	4	0.0260099	13	1.1602	1.01014e-06
2	1	0	0	1	1655.2	-0.34654	-0.348152	-0.006716	4	0.0260016	13	2.7606	2.33819e-06
2	1	0	1	1	1656.8	-0.386549	-0.38815	-0.0103584	4	0.025988	13	4.3608	4.02062e-06
2	1	0	1	1	1658.4	-0.426558	-0.428232	-0.0139031	4	0.0259688	13	5.9612	5.95373e-06
2	1	0	1	1	1660	-0.466566	-0.468189	-0.0173118	4	0.0259442	13	7.5616	8.1052e-06
2	0	0	1	1	1661.6	-0.506577	-0.508152	-0.0212774	4	0.0259137	13	9.1619	1.08121e-05
2	0	0	0	1	1663.2	-0.546583	-0.548184	-0.0252643	4	0.0258769	13	10.7622	1.38495e-05
2	0	0	0	1	1664.81	-0.586592	-0.588229	-0.0294089	4	0.0258336	13	12.3626	1.72992e-05
2	0	0	0	1	1666.41	-0.626601	-0.628248	-0.0336186	4	0.0257835	13	13.963	2.11208e-05
2	0	0	1	1	1668.01	-0.666609	-0.668091	-0.0381536	4	0.0257263	13	15.5632	2.54901e-05
2	0	0	1	1	1669.61	-0.706618	-0.708149	-0.0426808	4	0.025662	13	17.1636	3.02244e-05
2	0	0	1	1	1671.21	-0.746627	-0.748085	-0.0474027	4	0.0255902	13	18.764	3.54613e-05
2	0	0	1	1	1672.81	-0.786635	-0.788016	-0.0521768	4	0.0255109	13	20.3644	4.11161e-05
2	0	0	0	1	1674.41	-0.826644	-0.828179	-0.057154	4	0.0254238	13	21.9646	4.73337e-05
2	0	0	0	1	1676.01	-0.866653	-0.868186	-0.0622009	4	0.0253287	13	23.565	5.4002e-05
2	0	0	0	1	1677.61	-0.906661	-0.908146	-0.0676186	4	0.0252252	13	25.1654	6.14076e-05
2	0	0	1	1	1679.21	-0.946671	-0.948227	-0.0737038	4	0.0251126	13	26.7657	6.9888e-05
2	0	0	1	1	1680.81	-0.986679	-0.988146	-0.0800162	4	0.0249901	13	28.366	7.90676e-05
2	0	0	1	0	1682.37	-0.974476	-0.975935	-0.0761711	4	0.0248669	13	29.9228	7.4338e-05
2	0	0	1	0	1683.97	-0.934467	-0.936095	-0.0693415	4	0.0247512	13	31.5232	6.49102e-05
2	0	0	1	0	1685.57	-0.894459	-0.895996	-0.0631769	4	0.0246456	13	33.1236	5.66063e-05
2	0	0	1	0	1687.17	-0.85445	-0.856025	-0.0578118	4	0.0245493	13	34.7239	4.94883e-05
2	0	0	0	0	1688.77	-0.814441	-0.81592	-0.0521442	4	0.0244619	13	36.3242	4.25455e-05
2	0	0	0	0	1690.37	-0.774433	-0.775989	-0.0466029	4	0.0243832	13	37.9246	3.61634e-05
2	0	0	0	0	1691.97	-0.734424	-0.736025	-0.041337	4	0.024313	13	39.525	3.04251e-05
2	0	0	1	0	1693.57	-0.694415	-0.69579	-0.0358152	4	0.0242512	13	41.1252	2.49199e-05
2	0	0	1	0	1695.17	-0.654407	-0.6559	-0.0306859	4	0.0241978	13	42.7256	2.01269e-05
2	0	0	1	0	1696.77	-0.614398	-0.61595	-0.0258914	4	0.0241528	13	44.326	1.59478e-05
2	0	0	1	0	1698.37	-0.57439	-0.575953	-0.0209769	4	0.024116	13	45.9264	1.20817e-05
2	0	0	0	0	1699.97	-0.534381	-0.535945	-0.015661	4	0.0240875	13	47.5266	8.39342e-06
2	0	0	0	0	1701.57	-0.494372	-0.49591	-0.0105459	4	0.0240674	13	49.127	5.22982e-06
2	0	0	0	0	1703.17	-0.454364	-0.455929	-0.00536413	4	0.0240555	13	50.7274	2.44567e-06
2	1	0	1	0	1704.77	-0.414356	-0.415846	0.000152234	4	0.0240522	13	0.0801	-6.33058e-08
2	1	0	1	0	1706.37	-0.374346	-0.37595	0.00549648	4	0.0240574	13	1.6804	-2.06641e-06
2	1	0	1	0	1707.91	-0.335938	-0.337505	0.0118176	5	0.0240706	13	3.2168	-3.9885e-06
2	1	0	1	0	1709.51	-0.295929	-0.297424	0.0172435	5	0.0240929	13	4.8172	-5.12864e-06
2	1	0	0	0	1711.11	-0.255921	-0.257516	0.0224877	5	0.024124	13	6.4174	-5.79094e-06
2	1	0	0	0	1712.71	-0.215912	-0.217547	0.0279339	5	0.0241638	13	8.0178	-6.07693e-06
2	1	0	0	0	1714.31	-0.175903	-0.177526	0.0333511	5	0.0242121	13	9.6182	-5.92069e-06
2	1	0	0	0	1715.91	-0.135895	-0.137457	0.0384702	5	0.0242688	13	11.2186	-5.28801e-06
2	1	0	1	0	1717.51	-0.0958861	-0.0974938	0.0431767	5	0.0243335	13	12.8188	-4.20946e-06
2	1	0	1	0	1719.11	-0.0558775	-0.0574708	0.0483217	5	0.0244064	13	14.4192	-2.77709e-06
2	1	0	1	0	1720.71	-0.0158689	-0.0173789	0.0531854	5	0.0244871	13	16.0196	-9.24302e-07
2	1	0	0	0	1722.31	0.0241398	0.0227608	0.0574449	5	0.0245754	13	17.6198	1.30749e-06
2	1	0	0	0	1723.91	0.0641484	0.0626723	0.0618948	5	0.0246708	13	19.2202	3.87909e-06
2	1	0	0	0	1725.51	0.104157	0.102531	0.0663883	5	0.0247735	13	20.8206	6.80685e-06
2	1	0	0	0	1727.11	0.144166	0.142564	0.0706038	5	0.0248833	13	22.421	1.00656e-05
2	1	0	1	0	1728.71	0.184174	0.182596	0.074577	5	0.0250003	13	24.0212	1.36174e-05
2	1	0	1	0	1730.31	0.224183	0.222647	0.0787889	5	0.0251241	13	25.6216	1.75421e-05
2	1	0	1	0	1731.91	0.264192	0.262675	0.0828569	5	0.0252544	13	27.222	2.17644e-05
2	1	0	1	0	1733.51	0.3042	0.302761	0.0863872	5	0.025391	13	28.8224	2.61547e-05
2	1	0	0	0	1735.11	0.344209	0.342664	0.0899948	5	0.0255336	13	30.4226	3.0838e-05
2	1	0	0	0	1736.74	0.384918	0.383508	0.0947101	5	0.0256853	12	32.051	3.63221e-05
2	1	0	0	0	1738.34	0.424926	0.423529	0.0978754	5	0.0258399	12	33.6514	4.14531e-05
2	1	0	1	0	1739.94	0.464936	0.463461	0.100745	5	0.0259996	12	35.2517	4.66914e-05
2	1	0	1	0	1741.54	0.504943	0.503485	0.103888	5	0.0261642	12	36.852	5.23059e-05
2	1	0	1	0	1743.14	0.544952	0.54354	0.106787	5	0.0263332	12	38.4524	5.80428e-05
2	1	0	1	0	1744.74	0.584961	0.583507	0.109256	5	0.0265065	12	40.0528	6.37516e-05
2	1	0	0	0	1746.34	0.624969	0.62354	0.111389	5	0.0266837	12	41.653	6.94555e-05
2	1	0	0	0	1747.94	0.664978	0.663572	0.113764	5	0.0268644	12	43.2534	7.5491e-05
2	1	0	0	0	1749.54	0.704987	0.703579	0.115687	5	0.0270484	12	44.8538	8.13952e-05
2	1	0	0	0	1751.14	0.744995	0.743516	0.117385	5	0.0272354	12	46.4542	8.72775e-05
2	1	0	1	0	1752.74	0.785004	0.783565	0.118938	5	0.027425	12	48.0544	9.31959e-05
2	1	0	1	0	1754.34	0.825012	0.823571	0.120404	5	0.027617	12	49.6548	9.91616e-05
2	1	0	1	0	1755.95	0.865021	0.863651	0.121644	5	0.0278111	12	51.2552	0.000105058
2	1	0	1	0	1757.55	0.905029	0.903636	0.122713	5	0.0280071	12	52.8555	0.000110888
2	1	0	0	0	1759.15	0.945038	0.943718	0.12369	5	0.0282046	12	54.4558	0.000116729
2	1	0	0	0	1760.75	0.985047	0.983715	0.124467	5	0.0284036	12	56.0562	0.00012244
2	1	0	0	0	1762.29	0.976445	0.975163	0.121217	5	0.0285937	12	57.597	0.000118206
2	1	0	0	0	1763.89	0.936436	0.935087	0.114783	5	0.0287811	12	59.1974	0.000107332
2	1	0	0	0	1765.49	0.896428	0.894996	0.10904	5	0.0289591	12	60.7978	9.75899e-05
2	1	0	0	0	1767.09	0.856419	0.854992	0.103894	5	0.0291285	12	62.3982	8.88283e-05
2	1	0	1	0	1768.69	0.816411	0.814892	0.0988751	5	0.0292899	12	63.9984	8.05725e-05
2	1	0	1	0	1770.29	0.776402	0.774918	0.0942508	5	0.029444	12	65.5988	7.30367e-05
2	1	0	1	0	1771.89	0.736393	0.734897	0.0900291	5	0.0295911	12	67.1992	6.61621e-05
2	1	0	1	0	1773.49	0.696385	0.694879	0.0859237	5	0.0297317	12	68.7996	5.97066e-05
2	1	0	0	0	1775.09	0.656376	0.65491	0.0817291	5	0.0298659	12	70.3998	5.35252e-05
2	1	0	0	0	1776.69	0.616367	0.614887	0.0780282	5	0.0299942	12	72.0002	4.79785e-05
2	1	0	0	0	1778.29	0.576359	0.574898	0.0745587	5	0.0301166	12	73.6006	4.28636e-05
2	1	0	1	0	1779.89	0.53635	0.534898	0.0711778	5	0.0302333	12	75.2008	3.80729e-05
2	1	0	1	0	1781.49	0.496342	0.494862	0.0676344	5	0.0303446	12	76.8012	3.34697e-05
2	1	0	1	0	1783.09	0.456333	0.454823	0.0642816	5	0.0304505	12	78.4016	2.92368e-05
2	1	0	1	0	1784.69	0.416324	0.414817	0.0611342	5	0.0305512	12	80.002	2.53595e-05
2	1	0	0	0	1786.29	0.376316	0.374889	0.0579763	5	0.0306467	12	81.6022	2.17347e-05
2	1	0	0	0	1787.89	0.336307	0.334785	0.0548709	5	0.0307371	12	83.2026	1.83699e-05
2	1	0	0	0	1789.49	0.296298	0.294801	0.0516576	5	0.0308225	12	84.803	1.52287e-05
2	1	0	0	0	1791.09	0.25629	0.254823	0.048468	5	0.0309029	12	86.4034	1.23508e-05
2	1	0	1	0	1792.72	0.215581	0.214115	0.0452147	5	0.0309789	13	88.0316	9.68116e-06
2	1	0	1	0	1794.32	0.175572	0.174084	0.0420228	5	0.0310484	13	89.632	7.3155e-06
2	1	0	1	0	1795.92	0.135564	0.134073	0.0389161	5	0.0311128	13	91.2324	5.21759e-06
2	1	0	0	0	1797.52	0.0955552	0.094105	0.0354461	5	0.031172	13	92.8326	3.33566e-06
2	1	0	0	0	1799.12	0.0555465	0.0541064	0.0319175	5	0.031226	13	94.433	1.72694e-06
2	1	0	0	0	1800.72	0.0155379	0.0141079	0.0281069	5	0.0312743	13	96.0334	3.96529e-07
2	1	0	0	0	1802.32	-0.0244707	-0.0260052	0.0239927	5	0.0313164	13	97.6338	-6.23935e-07
2	1	0	1	0	1803.92	-0.0644794	-0.06606	0.0191353	5	0.0313516	13	99.234	-1.26408e-06
2	1	0	1	0	1805.52	-0.104488	-0.106024	0.0139507	5	0.0313789	13	100.834	-1.47911e-06
2	1	0	1	0	1807.12	-0.144497	-0.146036	0.00878824	5	0.031398	13	102.435	-1.2834e-06
2	1	0	1	0	1808.73	-0.184505	-0.18605	0.00489169	5	0.0314098	13	104.035	-9.10101e-07
2	1	0	0	0	1810.33	-0.224514	-0.226094	0.00241929	5	0.0314164	13	105.635	-5.46987e-07
2	0	0	0	0	1811.93	-0.264523	-0.266057	-0.000350344	5	0.0314191	13	0.04	9.32115e-08
2	0	0	0	0	1813.53	-0.304531	-0.306119	-0.0038864	5	0.0314168	13	1.0802	1.1897e-06
2	0	0	1	0	1815.13	-0.344542	-0.346047	-0.00742246	5	0.0314091	13	2.6805	2.56852e-06
2	0	0	1	0	1816.73	-0.384548	-0.386036	-0.0103735	5	0.0313962	13	4.2808	4.00453e-06
2	0	0	1	0	1818.33	-0.424557	-0.426016	-0.0135663	5	0.0313779	13	5.8812	5.77946e-06
2	0	0	1	0	1819.93	-0.464566	-0.46605	-0.0171014	5	0.0313544	13	7.4816	7.97011e-06
2	0	0	0	0	1821.53	-0.504574	-0.506213	-0.0210685	5	0.031325	13	9.0818	1.06651e-05
2	0	0	0	0	1823.13	-0.544583	-0.54618	-0.0246626	5	0.0312896	13	10.6822	1.34702e-05
2	0	0	0	0	1824.73	-0.584592	-0.586254	-0.0286732	5	0.0312477	13	12.2826	1.68098e-05
2	0	0	0	0	1826.33	-0.6246	-0.626182	-0.0330344	5	0.0311993	13	13.883	2.06856e-05
2	0	0	1	0	1827.93	-0.664609	-0.666277	-0.0376999	5	0.0311439	13	15.4832	2.51186e-05
2	0	0	1	0	1829.53	-0.704618	-0.706284	-0.0419877	5	0.0310815	13	17.0836	2.96552e-05
2	0	0	1	0	1831.13	-0.744626	-0.746242	-0.0464967	5	0.0310118	13	18.684	3.46978e-05
2	0	0	1	0	1832.73	-0.784635	-0.786267	-0.0512522	5	0.0309345	13	20.2843	4.02979e-05
2	0	0	0	0	1834.33	-0.824644	-0.826338	-0.0563781	5	0.0308496	13	21.8846	4.65873e-05
2	0	0	0	0	1835.93	-0.864652	-0.866362	-0.0614724	5	0.0307566	13	23.485	5.32574e-05
2	0	0	0	0	1837.53	-0.904661	-0.906332	-0.0667895	5	0.0306553	13	25.0854	6.05335e-05
2	0	0	1	0	1839.13	-0.94467	-0.946184	-0.0728805	5	0.0305446	13	26.6856	6.89583e-05
2	0	0	1	0	1840.73	-0.984678	-0.986323	-0.0792342	5	0.0304239	13	28.286	7.81505e-05
2	0	0	1	1	1842.29	-0.976476	-0.977974	-0.0756987	5	0.0303019	13	29.8428	7.40314e-05
2	0	0	1	1	1843.89	-0.936468	-0.93807	-0.0688256	5	0.0301873	13	31.4432	6.45632e-05
2	0	0	1	1	1845.49	-0.896459	-0.898075	-0.0626676	5	0.0300828	13	33.0436	5.62802e-05
2	0	0	0	1	1847.09	-0.85645	-0.857998	-0.0568125	5	0.0299875	13	34.6438	4.8745e-05
2	0	0	0	1	1848.69	-0.816442	-0.817875	-0.0515253	5	0.029901	13	36.2442	4.21412e-05
2	0	0	0	1	1850.29	-0.776433	-0.777874	-0.0461196	5	0.0298231	13	37.8446	3.58753e-05
2	0	0	0	1	1851.89	-0.736425	-0.737848	-0.040702	5	0.0297536	13	39.445	3.00319e-05
2	0	0	1	1	1853.49	-0.696416	-0.69792	-0.0355718	5	0.0296924	13	41.0452	2.48262e-05
2	0	0	1	1	1855.09	-0.656407	-0.65785	-0.030559	5	0.0296395	13	42.6456	2.01033e-05
2	0	0	1	1	1856.69	-0.616399	-0.617836	-0.0254885	5	0.0295947	13	44.246	1.57477e-05
2	0	0	1	1	1858.29	-0.576391	-0.57778	-0.0202121	5	0.0295581	13	45.8463	1.16781e-05
2	0	0	0	1	1859.89	-0.536381	-0.537774	-0.0150242	5	0.0295297	13	47.4466	8.07964e-06
2	0	0	0	1	1861.49	-0.496373	-0.49777	-0.0101012	5	0.0295095	13	49.047	5.0281e-06
2	0	0	0	1	1863.09	-0.456364	-0.457904	-0.00515245	5	0.0294974	13	50.6474	2.35933e-06
2	0	0	1	1	1864.69	-0.416355	-0.417846	0.000356539	5	0.0294937	13	0.000000000000000E+000	-1.48978e-07
2	1	0	1	1	1866.29	-0.376347	-0.377833	0.00565717	5	0.0294985	13	1.5604	-2.13746e-06
2	1	0	1	1	1867.83	-0.337938	-0.339415	0.0108235	6	0.0295111	13	3.0968	-3.67365e-06
2	1	0	1	1	1869.43	-0.29793	-0.299481	0.0164423	6	0.0295327	13	4.6972	-4.92417e-06
2	1	0	0	1	1871.03	-0.257921	-0.259468	0.0217803	6	0.0295629	13	6.2974	-5.65129e-06
2	1	0	0	1	1872.63	-0.217913	-0.219547	0.0271858	6	0.0296017	13	7.8978	-5.96855e-06
2	1	0	0	1	1874.23	-0.177904	-0.179473	0.0325356	6	0.0296488	13	9.4982	-5.83925e-06
2	1	0	1	1	1875.83	-0.137895	-0.139525	0.0374118	6	0.0297042	13	11.0984	-5.2199e-06
2	1	0	1	1	1877.43	-0.0978866	-0.0995225	0.0425204	6	0.0297675	13	12.6988	-4.23174e-06
2	1	0	1	1	1879.03	-0.0578779	-0.059473	0.0474256	6	0.0298386	13	14.2992	-2.82054e-06
2	1	0	1	1	1880.63	-0.0178693	-0.0194766	0.0519298	6	0.0299176	13	15.8996	-1.01141e-06
2	1	0	0	1	1882.23	0.0221393	0.0205283	0.0559039	6	0.0300039	13	17.4998	1.14761e-06
2	1	0	0	1	1883.83	0.062148	0.0604675	0.0600707	6	0.0300972	13	19.1002	3.63232e-06
2	1	0	0	1	1885.43	0.102157	0.100599	0.0641831	6	0.0301974	13	20.7006	6.45673e-06
2	1	0	0	1	1887.03	0.142165	0.140589	0.0684613	6	0.0303048	13	22.301	9.62488e-06
2	1	0	1	1	1888.63	0.182174	0.180636	0.0727298	6	0.030419	13	23.9012	1.31376e-05
2	1	0	1	1	1890.24	0.222182	0.220665	0.0769265	6	0.0305399	13	25.5016	1.6975e-05
2	1	0	1	1	1891.84	0.262191	0.260643	0.0806711	6	0.0306671	13	27.102	2.10263e-05
2	1	0	0	1	1893.44	0.3022	0.300639	0.0844953	6	0.0308004	13	28.7022	2.54026e-05
2	1	0	0	1	1895.04	0.342208	0.340581	0.0884447	6	0.0309394	13	30.3026	3.01226e-05
2	1	0	0	1	1896.64	0.382217	0.380798	0.0923597	6	0.031084	13	31.903	3.51704e-05
2	1	0	0	1	1898.27	0.422926	0.421447	0.0955117	6	0.0312374	12	33.5314	4.02532e-05
2	1	0	1	1	1899.87	0.462934	0.461458	0.0986628	6	0.0313928	12	35.1316	4.55287e-05
2	1	0	1	1	1901.47	0.502943	0.501443	0.101307	6	0.0315529	12	36.732	5.07996e-05
2	1	0	1	1	1903.07	0.542952	0.541499	0.103974	6	0.0317173	12	38.3324	5.6302e-05
2	1	0	1	1	1904.67	0.58296	0.581515	0.106419	6	0.0318857	12	39.9328	6.18843e-05
2	1	0	0	1	1906.27	0.622969	0.621469	0.108335	6	0.0320577	12	41.533	6.73266e-05
2	1	0	0	1	1907.87	0.662978	0.661444	0.110028	6	0.0322331	12	43.1334	7.27775e-05
2	1	0	0	1	1909.47	0.702986	0.701611	0.111853	6	0.0324114	12	44.7338	7.84772e-05
2	1	0	1	1	1911.07	0.742995	0.741516	0.11346	6	0.0325925	12	46.3341	8.41326e-05
2	1	0	1	1	1912.67	0.783003	0.781547	0.114757	6	0.0327761	12	47.9344	8.96878e-05
2	1	0	1	1	1914.27	0.823012	0.821558	0.116438	6	0.0329619	12	49.5348	9.56609e-05
2	1	0	1	1	1915.87	0.863021	0.86155	0.117837	6	0.0331496	12	51.1352	0.000101523
2	1	0	0	1	1917.47	0.903029	0.901606	0.118736	6	0.033339	12	52.7354	0.000107053
2	1	0	0	1	1919.07	0.943038	0.941627	0.119708	6	0.0335299	12	54.3358	0.00011272
2	1	0	0	1	1920.67	0.983046	0.981607	0.120548	6	0.0337221	12	55.9362	0.00011833
2	1	0	0	1	1922.21	0.978446	0.977002	0.116927	6	0.0339061	12	57.477	0.000114238
2	1	0	0	1	1923.81	0.938437	0.937008	0.110789	6	0.0340877	12	59.0774	0.00010381
2	1	0	0	1	1925.41	0.898428	0.897015	0.105294	6	0.0342602	12	60.6778	9.44503e-05
2	1	0	1	1	1927.01	0.858421	0.857006	0.100547	6	0.0344244	12	62.2781	8.61693e-05
2	1	0	1	1	1928.61	0.818411	0.816981	0.0958809	6	0.0345812	12	63.8784	7.83328e-05
2	1	0	1	1	1930.21	0.778402	0.77693	0.0914564	6	0.0347309	12	65.4788	7.10552e-05
2	1	0	1	1	1931.81	0.738394	0.736966	0.0873871	6	0.034874	12	67.0792	6.44013e-05
2	1	0	0	1	1933.41	0.698385	0.696886	0.0838037	6	0.0350108	12	68.6794	5.84017e-05
2	1	0	0	1	1935.01	0.658377	0.656946	0.0800538	6	0.0351417	12	70.2798	5.2591e-05
2	1	0	0	1	1936.61	0.618368	0.61692	0.0763178	6	0.0352668	12	71.8802	4.7082e-05
2	1	0	0	1	1938.21	0.578359	0.576933	0.072895	6	0.0353863	12	73.4806	4.20556e-05
2	1	0	1	1	1939.81	0.538351	0.536854	0.0698769	6	0.0355004	12	75.0808	3.75137e-05
2	1	0	1	1	1941.41	0.498342	0.496814	0.0666907	6	0.0356093	12	76.6812	3.31329e-05
2	1	0	1	1	1943.02	0.458333	0.456813	0.0633513	6	0.035713	12	78.2816	2.89397e-05
2	1	0	1	1	1944.62	0.418325	0.416837	0.0602128	6	0.0358116	12	79.882	2.50989e-05
2	1	0	0	1	1946.22	0.378316	0.376816	0.0573733	6	0.0359053	12	81.4822	2.16192e-05
2	1	0	0	1	1947.82	0.338307	0.336758	0.054437	6	0.035994	12	83.0826	1.83321e-05
2	1	0	0	1	1949.42	0.298299	0.296809	0.0512309	6	0.0360778	12	84.683	1.52058e-05
2	1	0	1	1	1951.02	0.25829	0.256833	0.048276	6	0.0361568	12	86.2832	1.23989e-05
2	1	0	1	1	1952.65	0.217581	0.216073	0.045424	6	0.036232	13	87.9116	9.81491e-06
2	1	0	1	1	1954.25	0.177573	0.176134	0.0421948	6	0.0363003	13	89.512	7.43194e-06
2	1	0	1	1	1955.85	0.137564	0.136078	0.0390001	6	0.0363637	13	91.1124	5.30706e-06
2	1	0	0	1	1957.45	0.0975556	0.0960361	0.0361492	6	0.036422	13	92.7126	3.47163e-06
2	1	0	0	1	1959.05	0.057547	0.0560768	0.0328962	6	0.0364751	13	94.313	1.84472e-06
2	1	0	0	1	1960.65	0.0175384	0.0160655	0.0292689	6	0.0365228	13	95.9134	4.70221e-07
2	1	0	0	1	1962.25	-0.0224703	-0.0239861	0.0252387	6	0.0365644	13	97.5138	-6.05378e-07
2	1	0	1	1	1963.85	-0.0624789	-0.0640822	0.0209613	6	0.0365992	13	99.114	-1.34325e-06
2	1	0	1	1	1965.45	-0.102488	-0.104011	0.0160261	6	0.0366263	13	100.714	-1.66689e-06
2	1	0	1	1	1967.05	-0.142496	-0.143964	0.0109913	6	0.0366455	13	102.315	-1.58234e-06
2	1	0	1	1	1968.65	-0.182507	-0.18416	0.00660976	6	0.0366576	13	103.915	-1.21725e-06
2	1	0	0	1	1970.25	-0.222514	-0.223993	0.00383321	6	0.0366647	13	105.515	-8.58611e-07
2	1	0	0	1	1971.85	-0.262522	-0.264019	0.000668481	6	0.0366677	13	0.08	-1.76492e-07
2	1	0	0	1	1973.45	-0.302531	-0.3043	-0.00297908	6	0.0366657	13	1.0402	9.06534e-07
2	1	0	1	1	1975.05	-0.342539	-0.344164	-0.00640089	6	0.0366584	13	2.6404	2.20296e-06
2	0	0	1	1	1976.65	-0.382548	-0.384153	-0.009483	6	0.0366459	13	4.2408	3.64293e-06
2	0	0	1	1	1978.25	-0.422557	-0.424216	-0.0127394	6	0.0366283	13	5.8412	5.40426e-06
2	0	0	1	1	1979.85	-0.462565	-0.464298	-0.0159261	6	0.0366055	13	7.4416	7.39447e-06
2	0	0	0	1	1981.45	-0.502574	-0.504302	-0.0194759	6	0.0365771	13	9.0418	9.82172e-06
2	0	0	0	1	1983.05	-0.542583	-0.544269	-0.0230269	6	0.0365428	13	10.6422	1.25328e-05
2	0	0	0	1	1984.65	-0.582591	-0.584005	-0.0265074	6	0.0365022	13	12.2426	1.54805e-05
2	0	0	1	1	1986.25	-0.622601	-0.624035	-0.0305285	6	0.0364551	13	13.8429	1.90508e-05
2	0	0	1	1	1987.85	-0.662609	-0.664138	-0.0346111	6	0.0364012	13	15.4432	2.29866e-05
2	0	0	1	1	1989.45	-0.702617	-0.703971	-0.0390131	6	0.0363405	13	17.0436	2.74641e-05
2	0	0	1	1	1991.05	-0.742626	-0.744163	-0.0432441	6	0.0362725	13	18.644	3.21806e-05
2	0	0	0	1	1992.65	-0.782635	-0.784143	-0.0478386	6	0.0361971	13	20.2442	3.75123e-05
2	0	0	0	1	1994.25	-0.822643	-0.824202	-0.0528252	6	0.0361141	13	21.8446	4.35386e-05
2	0	0	0	1	1995.85	-0.862652	-0.864233	-0.0581002	6	0.0360231	13	23.445	5.02121e-05
2	0	0	0	1	1997.46	-0.90266	-0.904179	-0.0638043	6	0.0359236	13	25.0454	5.76905e-05
2	0	0	1	1	1999.06	-0.942669	-0.944289	-0.0698469	6	0.0358148	13	26.6456	6.59556e-05
2	0	0	1	1	2000.66	-0.982678	-0.984175	-0.076149	6	0.0356959	13	28.246	7.49439e-05
2	0	0	1	0	2002.21	-0.978477	-0.980156	-0.0755851	6	0.035575	13	29.8028	7.40852e-05
2	0	0	1	0	2003.81	-0.938468	-0.940074	-0.0688261	6	0.0354615	13	31.4032	6.47016e-05
2	0	0	1	0	2005.41	-0.89846	-0.900037	-0.0629535	6	0.0353579	13	33.0036	5.66604e-05
2	0	0	0	0	2007.01	-0.858451	-0.860039	-0.0575482	6	0.0352636	13	34.6038	4.94937e-05
2	0	0	0	0	2008.61	-0.818442	-0.820167	-0.0523974	6	0.0351779	13	36.2042	4.29746e-05
2	0	0	0	0	2010.21	-0.778434	-0.779872	-0.0466735	6	0.0351008	13	37.8046	3.63994e-05
2	0	0	1	0	2011.81	-0.738426	-0.739978	-0.0413365	6	0.0350319	13	39.4049	3.05881e-05
2	0	0	1	0	2013.41	-0.698416	-0.699961	-0.0359767	6	0.0349712	13	41.0052	2.51823e-05
2	0	0	1	0	2015.02	-0.658408	-0.65998	-0.0305256	6	0.0349186	13	42.6056	2.01463e-05
2	0	0	1	0	2016.62	-0.618399	-0.619854	-0.0255905	6	0.0348741	13	44.206	1.58624e-05
2	0	0	0	0	2018.22	-0.57839	-0.579929	-0.0205968	6	0.0348377	13	45.8062	1.19446e-05
2	0	0	0	0	2019.82	-0.538382	-0.540058	-0.0154098	6	0.0348093	13	47.4066	8.3222e-06
2	0	0	0	0	2021.42	-0.498373	-0.499961	-0.0102906	6	0.034789	13	49.007	5.14492e-06
2	0	0	0	0	2023.02	-0.458364	-0.459817	-0.00495729	6	0.0347767	13	50.6074	2.27945e-06
2	0	0	1	0	2024.62	-0.418356	-0.419827	5.20831e-05	6	0.0347727	13	0.12	-2.18659e-08
2	1	0	1	0	2026.22	-0.378347	-0.379866	0.00482546	6	0.034777	13	1.4804	-1.83303e-06
2	1	0	1	0	2026.6	-0.368595	-0.370256	0.00607961	6	0.0347793	13	1.8672	-2.25101e-06