File: resorufin_10x_frittedTiCt_FTOWE_AgAgClref_N2sparge_3_16_CV_C12/resorufin_10x_frittedTiCt_FTOWE_AgAgClref_N2sparge_3_18_CV_C12.txt
EC-Lab ASCII FILE
Nb header lines : 59

Cyclic Voltammetry

Run on channel : 12 (SN 15159)
User :
CE vs. WE compliance from -10 V to 10 V
Electrode connection : standard
Potential control : Ewe
Ewe ctrl range : min = -2.50 V, max = 2.50 V
Safety Limits :
	Do not start on E overload
Acquisition started on : 06/27/2024 22:37:21.030
Technique started on : 06/28/2024 00:52:38.084
Loaded Setting File :  NONE
Saved on :
	File : resorufin_10x_frittedTiCt_FTOWE_AgAgClref_N2sparge_3_18_CV_C12.mpr
	Directory : C:\Users\user\OneDrive - California Institute of Technology\Desktop\Big James\06272024_resorufin_spEC_test\
	Host : 10.8.34.190
Device : VMP3 (SN 1026)
Address : 131.215.231.69
EC-Lab for windows v11.50 (software)
Internet server v11.52 (firmware)
Command interpretor v11.50 (firmware)
Electrode material : Au/Pd
Initial state :
Electrolyte : NaCl (0.2M)
Comments : Fe(CN)63-/Fe(CN)64- 5.10-3 M
Reference electrode : SCE Saturated Calomel Electrode (0.241 V)
Electrode surface area : 0.001 cm²
Characteristic mass : 0.001 g
Equivalent Weight : 0.000 g/eq.
Density : 0.000 g/cm3
Volume (V) : 0.001 cm³
Cycle Definition : Charge/Discharge alternance
Ei (V)              0.000
vs.                 Eoc
dE/dt               3.000
dE/dt unit          mV/s
E1 (V)              1.000
vs.                 Ref
Step percent        50
N                   10
E range min (V)     -2.500
E range max (V)     2.500
I Range             Auto
I Range min         Unset
I Range max         Unset
I Range init        Unset
Bandwidth           5
E2 (V)              -1.000
vs.                 Ref
nc cycles           5
Reverse Scan        1
Ef (V)              0.000
vs.                 Eoc

mode	ox/red	error	control changes	counter inc.	time/s	control/V	Ewe/V	<I>/mA	cycle number	(Q-Qo)/C	I Range	step time/s	P/W
2	0	0	1	0	8117.05	-0.43881	-0.440406	-0.0124646	1	0.0000000E+000	13	0.000000000000000E+000	5.48948e-06
2	0	0	1	0	8130.24	-0.399252	-0.400414	0.00375184	1	2.28684e-05	13	12.0026	-1.50229e-06
2	1	0	1	0	8143.58	-0.359243	-0.360591	0.00720832	1	9.64955e-05	13	25.3388	-2.59925e-06
2	1	0	1	0	8156.91	-0.319234	-0.320881	0.0107809	1	0.000218071	13	38.675	-3.45939e-06
2	1	0	1	0	8170.25	-0.279226	-0.280116	0.0142604	1	0.000386358	13	52.0112	-3.99457e-06
2	1	0	1	0	8183.59	-0.239217	-0.240846	0.0176175	1	0.000600003	13	65.3474	-4.2431e-06
2	1	0	1	0	8196.92	-0.199209	-0.200895	0.0207929	1	0.000857291	13	78.6836	-4.17718e-06
2	1	0	1	0	8210.26	-0.1592	-0.160885	0.0237878	1	0.00115595	13	92.0199	-3.8271e-06
2	1	0	1	0	8223.59	-0.119191	-0.119638	0.0266667	1	0.00149323	13	105.356	-3.19035e-06
2	1	0	1	0	8236.93	-0.0791825	-0.0811875	0.0291641	1	0.00186609	13	118.692	-2.36776e-06
2	1	0	1	0	8250.27	-0.039174	-0.0409969	0.03105	1	0.00226963	13	132.028	-1.27295e-06
2	1	0	1	0	8263.6	0.000834689	-0.00046461	0.0323312	1	0.00269512	13	145.365	-1.50214e-08
2	1	0	1	0	8276.94	0.0408436	0.0391574	0.0326632	1	0.0031314	13	158.701	1.27901e-06
2	1	0	1	0	8290.28	0.0808522	0.0795687	0.0322397	1	0.0035664	13	172.037	2.56527e-06
2	1	0	1	0	8303.61	0.120861	0.119236	0.0314476	1	0.00399186	13	185.373	3.74969e-06
2	1	0	1	0	8316.95	0.160869	0.159323	0.0309805	1	0.00440782	13	198.71	4.93589e-06
2	1	0	1	0	8330.28	0.200878	0.199457	0.0307367	1	0.00481902	13	212.046	6.13064e-06
2	1	0	1	0	8343.62	0.240886	0.239716	0.0310212	1	0.00523076	13	225.382	7.43629e-06
2	1	0	1	0	8356.96	0.280895	0.279998	0.0316408	1	0.00564768	13	238.718	8.85936e-06
2	1	0	1	0	8370.29	0.320904	0.319581	0.0322168	1	0.006073	13	252.054	1.02959e-05
2	1	0	1	0	8383.63	0.360912	0.35838	0.0330024	1	0.00650875	13	265.391	1.18274e-05
2	1	0	1	0	8396.96	0.400921	0.399734	0.0341986	1	0.00695736	13	278.727	1.36703e-05
2	1	0	1	0	8410.3	0.44093	0.440418	0.0353179	1	0.00742027	13	292.063	1.55546e-05
2	1	0	1	0	8423.64	0.480938	0.479535	0.0364036	1	0.00789826	13	305.399	1.74568e-05
2	1	0	1	0	8436.97	0.520947	0.519682	0.0374857	1	0.00839192	13	318.735	1.94806e-05
2	1	0	1	0	8450.31	0.560955	0.559429	0.0388029	1	0.00890161	13	332.072	2.17075e-05
2	1	0	1	0	8463.65	0.600964	0.599861	0.0399766	1	0.00942733	13	345.408	2.39804e-05
2	1	0	1	0	8476.98	0.640973	0.639588	0.0412855	1	0.00996916	13	358.744	2.64057e-05
2	1	0	1	0	8490.32	0.680982	0.679647	0.0424086	1	0.0105268	13	372.08	2.88229e-05
2	1	0	1	0	8503.65	0.72099	0.720091	0.0437191	1	0.0111004	13	385.417	3.14817e-05
2	1	0	1	0	8516.99	0.760999	0.7597	0.0447761	1	0.0116897	13	398.753	3.40164e-05
2	1	0	1	0	8530.33	0.801007	0.800463	0.0460205	1	0.0122947	13	412.089	3.68377e-05
2	1	0	1	0	8543.66	0.841016	0.839519	0.0470109	1	0.012915	13	425.425	3.94665e-05
2	1	0	1	0	8557	0.881024	0.879746	0.048146	1	0.0135504	13	438.761	4.23563e-05
2	1	0	1	0	8570.34	0.921033	0.919631	0.0492133	1	0.0142003	13	452.098	4.52581e-05
2	1	0	1	0	8583.67	0.961042	0.959553	0.0502807	1	0.0148645	13	465.434	4.8247e-05
2	1	0	1	0	8596.66	1	0.999427	0.0514392	1	0.0155246	13	478.42	5.14097e-05
2	1	0	1	0	8609.84	0.960442	0.959357	0.049368	1	0.0161873	13	491.606	4.73615e-05
2	1	0	1	0	8623.18	0.920433	0.918924	0.0476955	1	0.0168337	13	504.943	4.38285e-05
2	1	0	1	0	8636.52	0.880425	0.878922	0.0461534	1	0.0174591	13	518.279	4.05652e-05
2	1	0	1	0	8649.85	0.840416	0.839137	0.0446782	1	0.0180644	13	531.615	3.74911e-05
2	1	0	1	0	8663.19	0.800407	0.799092	0.0432808	1	0.0186506	13	544.951	3.45854e-05
2	1	0	1	0	8676.53	0.760398	0.758869	0.0419113	1	0.0192184	13	558.288	3.18052e-05
2	1	0	1	0	8689.86	0.72039	0.718562	0.0406926	1	0.0197684	13	571.624	2.92401e-05
2	1	0	1	0	8703.2	0.680381	0.679017	0.0392804	1	0.0203006	13	584.96	2.66721e-05
2	1	0	1	0	8716.53	0.640373	0.639183	0.0379939	1	0.0208153	13	598.296	2.42851e-05
2	1	0	1	0	8729.87	0.600364	0.598788	0.0366701	1	0.0213127	13	611.632	2.19576e-05
2	1	0	1	0	8743.21	0.560356	0.558514	0.0354116	1	0.0217929	13	624.969	1.97779e-05
2	1	0	1	0	8756.54	0.520347	0.51821	0.0339905	1	0.0222559	13	638.305	1.76143e-05
2	1	0	1	0	8769.88	0.480338	0.478691	0.0328252	1	0.0227019	13	651.641	1.57131e-05
2	1	0	1	0	8783.22	0.440329	0.438665	0.0315204	1	0.0231305	13	664.977	1.38269e-05
2	1	0	1	0	8796.55	0.400321	0.398616	0.0301974	1	0.0235418	13	678.313	1.20371e-05
2	1	0	1	0	8809.89	0.360312	0.358529	0.0287629	1	0.0239354	13	691.65	1.03124e-05
2	1	0	1	0	8823.22	0.320304	0.318456	0.0275412	1	0.0243111	13	704.986	8.77067e-06
2	1	0	1	0	8836.56	0.280295	0.278972	0.0261522	1	0.0246686	13	718.322	7.29574e-06
2	1	0	1	0	8849.9	0.240286	0.239492	0.0248884	1	0.0250076	13	731.658	5.96055e-06
2	1	0	1	0	8863.23	0.200278	0.199818	0.0234418	1	0.0253278	13	744.995	4.6841e-06
2	1	0	1	0	8876.57	0.160269	0.159005	0.0219282	1	0.0256288	13	758.331	3.4867e-06
2	1	0	1	0	8889.9	0.120261	0.118755	0.0203676	1	0.0259101	13	771.667	2.41876e-06
2	1	0	1	0	8903.24	0.0802519	0.0790232	0.018887	1	0.0261715	13	785.003	1.49251e-06
2	1	0	1	0	8916.58	0.0402433	0.0389514	0.0173132	1	0.0264121	13	798.339	6.74373e-07
2	1	0	1	0	8929.91	0.000234759	-0.00130374	0.0156519	1	0.0266312	13	811.676	-2.04059e-08
2	1	0	1	0	8943.25	-0.0397738	-0.0418998	0.0139071	1	0.0268271	13	825.012	-5.82703e-07
2	1	0	1	0	8956.59	-0.0797825	-0.0811629	0.0118678	1	0.026998	13	838.348	-9.63229e-07
2	1	0	1	0	8969.92	-0.119791	-0.120954	0.00974213	1	0.0271415	13	851.684	-1.17835e-06
2	1	0	1	0	8983.26	-0.1598	-0.161473	0.00777442	1	0.0272565	13	865.02	-1.25536e-06
2	1	0	1	0	8996.59	-0.199809	-0.201238	0.00619293	1	0.0273471	13	878.357	-1.24625e-06
2	0	0	1	0	9009.93	-0.239817	-0.241906	0.00479468	1	0.0274182	13	891.693	-1.15986e-06
2	1	0	1	0	9023.27	-0.279826	-0.281275	0.00285459	1	0.0274674	13	905.029	-8.02923e-07
2	1	0	1	0	9036.6	-0.319835	-0.321439	0.000969091	1	0.0274921	13	918.365	-3.11504e-07
2	1	0	1	0	9049.94	-0.359843	-0.361523	-0.000912007	1	0.0274917	13	6.6682	3.29712e-07
2	0	0	1	0	9063.28	-0.399852	-0.401475	-0.00285252	1	0.0274651	13	20.0044	1.14522e-06
2	0	0	1	0	9076.61	-0.439861	-0.441568	-0.00513324	1	0.0274101	13	33.3406	2.26668e-06
2	0	0	1	0	9089.95	-0.479869	-0.481602	-0.0075711	1	0.0273238	13	46.6768	3.64626e-06
2	0	0	1	0	9103.28	-0.519878	-0.520817	-0.0103165	1	0.027203	13	60.013	5.37301e-06
2	0	0	1	0	9116.62	-0.559886	-0.560741	-0.01334	1	0.0270446	13	73.3492	7.48028e-06
2	0	0	1	0	9129.96	-0.599895	-0.602175	-0.0165219	1	0.0268461	13	86.6854	9.94909e-06
2	0	0	1	0	9143.29	-0.639904	-0.642081	-0.0197002	1	0.0266053	13	100.022	1.26491e-05
2	0	0	1	0	9156.63	-0.679912	-0.680769	-0.0230928	1	0.0263201	13	113.358	1.57209e-05
2	0	0	1	0	9169.97	-0.719921	-0.721707	-0.0265226	1	0.0259886	13	126.694	1.91416e-05
2	0	0	1	0	9183.3	-0.75993	-0.761301	-0.0302804	1	0.0256088	13	140.03	2.30525e-05
2	0	0	1	0	9196.64	-0.799938	-0.801814	-0.0341397	1	0.0251786	13	153.366	2.73737e-05
2	0	0	1	0	9209.97	-0.839947	-0.841988	-0.0384163	1	0.0246947	13	166.703	3.23461e-05
2	0	0	1	0	9223.31	-0.879956	-0.881392	-0.042936	1	0.0241526	13	180.039	3.78435e-05
2	0	0	1	0	9236.65	-0.919964	-0.921675	-0.0481078	1	0.0235453	13	193.375	4.43398e-05
2	0	0	1	0	9249.98	-0.959973	-0.960971	-0.0536703	1	0.0228669	13	206.711	5.15757e-05
2	0	0	1	0	9263.24	-0.999732	-1.00124	-0.0599427	1	0.0221151	13	219.964	6.00168e-05
2	0	0	1	1	9276.19	-0.961473	-0.962962	-0.0532449	1	0.0213832	13	232.918	5.12728e-05
2	0	0	1	1	9289.53	-0.921465	-0.92313	-0.0471548	1	0.0207149	13	246.254	4.353e-05
2	0	0	1	1	9302.86	-0.881456	-0.881941	-0.0414059	1	0.0201249	13	259.59	3.65176e-05
2	0	0	1	1	9316.2	-0.841447	-0.842927	-0.0362771	1	0.0196076	13	272.926	3.05789e-05
2	0	0	1	1	9329.53	-0.801439	-0.803085	-0.0312988	1	0.0191578	13	286.262	2.51356e-05
2	0	0	1	1	9342.87	-0.76143	-0.76293	-0.0268004	1	0.0187711	13	299.599	2.04468e-05
2	0	0	1	1	9356.21	-0.721421	-0.72311	-0.0223757	1	0.0184441	13	312.935	1.61801e-05
2	0	0	1	1	9369.54	-0.681413	-0.683153	-0.0181062	1	0.0181744	13	326.271	1.23693e-05
2	0	0	1	1	9382.88	-0.641404	-0.643175	-0.014081	1	0.0179598	13	339.607	9.05655e-06
2	0	0	1	1	9396.21	-0.601395	-0.603069	-0.0101879	1	0.0177984	13	352.944	6.14398e-06
2	0	0	1	1	9409.55	-0.561387	-0.562931	-0.00643702	1	0.0176883	13	366.28	3.6236e-06
2	0	0	1	1	9422.89	-0.521378	-0.522729	-0.00265206	1	0.0176284	13	379.616	1.38631e-06
2	0	0	1	1	9436.22	-0.48137	-0.482646	0.00115557	1	0.0176182	13	3.6674	-5.57729e-07
2	1	0	1	1	9449.56	-0.441361	-0.442701	0.00453023	1	0.0176562	13	17.0036	-2.00554e-06
2	1	0	1	1	9462.3	-0.403153	-0.404929	0.00765064	2	0.0177347	13	29.7397	-3.09796e-06
2	1	0	1	1	9475.63	-0.363144	-0.36486	0.0107772	2	0.0178587	13	43.076	-3.93217e-06
2	1	0	1	1	9488.97	-0.323135	-0.324888	0.0137464	2	0.0180235	13	56.4122	-4.46604e-06
2	1	0	1	1	9502.3	-0.283126	-0.284629	0.0167195	2	0.018228	13	69.7484	-4.75883e-06
2	1	0	1	1	9515.64	-0.243118	-0.243481	0.0198021	2	0.0184722	13	83.0846	-4.82143e-06
2	1	0	1	1	9528.98	-0.203109	-0.204682	0.0225294	2	0.018755	13	96.4208	-4.61138e-06
2	1	0	1	1	9542.31	-0.163101	-0.164197	0.0252794	2	0.019075	13	109.757	-4.1508e-06
2	1	0	1	1	9555.65	-0.123092	-0.124344	0.0277024	2	0.01943	13	123.093	-3.44462e-06
2	1	0	1	1	9568.99	-0.0830835	-0.0841765	0.0299607	2	0.0198175	13	136.429	-2.52198e-06
2	1	0	1	1	9582.32	-0.0430749	-0.0444019	0.0318776	2	0.0202336	13	149.766	-1.41543e-06
2	1	0	1	1	9595.66	-0.00306629	-0.00523103	0.0331281	2	0.0206709	13	163.102	-1.73294e-07
2	1	0	1	1	9608.99	0.0369426	0.0349015	0.0336403	2	0.0211199	13	176.438	1.1741e-06
2	1	0	1	1	9622.33	0.0769512	0.0758177	0.0334993	2	0.0215701	13	189.774	2.53984e-06
2	1	0	1	1	9635.67	0.11696	0.115357	0.0325068	2	0.0220114	13	203.11	3.74988e-06
2	1	0	1	1	9649	0.156968	0.155598	0.0310898	2	0.0224361	13	216.447	4.83752e-06
2	1	0	1	1	9662.34	0.196977	0.196061	0.0298368	2	0.0228415	13	229.783	5.84982e-06
2	1	0	1	1	9675.68	0.236986	0.235583	0.0287037	2	0.0232308	13	243.119	6.76209e-06
2	1	0	1	1	9689.01	0.276994	0.275749	0.0280702	2	0.0236093	13	256.455	7.74033e-06
2	1	0	1	1	9702.35	0.317003	0.315687	0.0277001	2	0.0239813	13	269.792	8.74456e-06
2	1	0	1	1	9715.68	0.357012	0.355663	0.0275683	2	0.0243498	13	283.128	9.80501e-06
2	1	0	1	1	9729.02	0.39702	0.395365	0.0274963	2	0.0247174	13	296.464	1.0871e-05
2	1	0	1	1	9742.36	0.437029	0.435446	0.0276135	2	0.0250859	13	309.8	1.20242e-05
2	1	0	1	1	9755.69	0.477037	0.475424	0.0278046	2	0.0254564	13	323.136	1.3219e-05
2	1	0	1	1	9769.03	0.517046	0.515578	0.0280705	2	0.0258295	13	336.473	1.44725e-05
2	1	0	1	1	9782.36	0.557055	0.555272	0.0282239	2	0.0262059	13	349.809	1.56719e-05
2	1	0	1	1	9795.7	0.597063	0.595771	0.0287344	2	0.0265866	13	363.145	1.71191e-05
2	1	0	1	1	9809.04	0.637072	0.635618	0.0291362	2	0.026972	13	376.481	1.85195e-05
2	1	0	1	1	9822.37	0.677081	0.676049	0.0296861	2	0.0273638	13	389.817	2.00693e-05
2	1	0	1	1	9835.71	0.717089	0.7158	0.0302611	2	0.027763	13	403.154	2.16609e-05
2	1	0	1	1	9849.05	0.757098	0.755809	0.0308306	2	0.0281701	13	416.49	2.3302e-05
2	1	0	1	1	9862.38	0.797107	0.795851	0.0314969	2	0.0285858	13	429.826	2.50668e-05
2	1	0	1	1	9875.72	0.837115	0.834761	0.0321774	2	0.0290104	13	443.162	2.68605e-05
2	1	0	1	1	9889.05	0.877124	0.876028	0.0328099	2	0.0294439	13	456.499	2.87424e-05
2	1	0	1	1	9902.39	0.917132	0.91588	0.0334965	2	0.0298865	13	469.835	3.06788e-05
2	1	0	1	1	9915.73	0.957141	0.955878	0.034138	2	0.0303378	13	483.171	3.26317e-05
2	1	0	1	1	9929.06	0.997149	0.995798	0.0348102	2	0.030798	13	496.507	3.4664e-05
2	1	0	1	1	9941.87	0.964443	0.962859	0.0336026	2	0.0312361	13	509.31	3.23545e-05
2	1	0	1	1	9955.2	0.924434	0.92372	0.0324156	2	0.0316762	13	522.646	2.99429e-05
2	1	0	1	1	9968.54	0.884425	0.883181	0.0314617	2	0.032102	13	535.983	2.77864e-05
2	1	0	1	1	9981.87	0.844417	0.842842	0.0304687	2	0.0325147	13	549.319	2.56803e-05
2	1	0	1	1	9995.21	0.804408	0.803075	0.0295631	2	0.0329149	13	562.655	2.37414e-05
2	1	0	1	1	10008.5	0.764399	0.763085	0.0286856	2	0.0333029	13	575.991	2.18895e-05
2	1	0	1	1	10021.9	0.724391	0.723042	0.0278012	2	0.0336792	13	589.328	2.01014e-05
2	1	0	1	1	10035.2	0.684382	0.682743	0.0269005	2	0.0340437	13	602.664	1.83661e-05
2	1	0	1	1	10048.6	0.644373	0.643062	0.0260497	2	0.0343965	13	616	1.67516e-05
2	1	0	1	1	10061.9	0.604365	0.603076	0.0251699	2	0.0347377	13	629.336	1.51794e-05
2	1	0	1	1	10075.2	0.564356	0.562764	0.0242779	2	0.0350672	13	642.672	1.36627e-05
2	1	0	1	1	10088.6	0.524348	0.523122	0.0234206	2	0.0353846	13	656.009	1.22519e-05
2	1	0	1	1	10101.9	0.484339	0.482295	0.0223921	2	0.0356903	13	669.345	1.07996e-05
2	1	0	1	1	10115.2	0.444331	0.443701	0.0215858	2	0.0359842	13	682.681	9.57766e-06
2	1	0	1	1	10128.6	0.404322	0.403033	0.0207502	2	0.0362662	13	696.017	8.363e-06
2	1	0	1	1	10141.9	0.364313	0.362755	0.0197643	2	0.0365356	13	709.353	7.16959e-06
2	1	0	1	1	10155.2	0.324304	0.322604	0.018814	2	0.0367927	13	722.69	6.06946e-06
2	1	0	1	1	10168.6	0.284296	0.282915	0.0178456	2	0.0370371	13	736.026	5.0488e-06
2	1	0	1	1	10181.9	0.244287	0.242654	0.0169861	2	0.0372684	13	749.362	4.12175e-06
2	1	0	1	1	10195.3	0.204279	0.201922	0.0159588	2	0.0374867	13	762.698	3.22243e-06
2	1	0	1	1	10208.6	0.16427	0.162288	0.0149252	2	0.037692	13	776.035	2.42218e-06
2	0	0	1	1	10221.9	0.124261	0.123345	0.0140674	2	0.037884	13	789.371	1.73515e-06
2	1	0	1	1	10235.3	0.0842526	0.0829256	0.0129283	2	0.0380624	13	802.707	1.07208e-06
2	1	0	1	1	10248.6	0.044244	0.0429579	0.0118275	2	0.0382267	13	816.043	5.08085e-07
2	1	0	1	1	10261.9	0.00423549	0.00250206	0.0106614	2	0.0383761	13	829.379	2.66755e-08
2	1	0	1	1	10275.3	-0.0357731	-0.0374868	0.00945422	2	0.0385093	13	842.716	-3.54409e-07
2	1	0	1	1	10288.6	-0.0757817	-0.0774652	0.00801709	2	0.0386242	13	856.052	-6.21046e-07
2	0	0	1	1	10301.9	-0.11579	-0.117271	0.00640504	2	0.0387185	13	869.388	-7.51124e-07
2	0	0	1	1	10315.3	-0.155799	-0.157479	0.00474328	2	0.0387905	13	882.724	-7.46967e-07
2	1	0	1	1	10328.6	-0.195808	-0.197305	0.0036308	2	0.0388436	13	896.06	-7.16374e-07
2	0	0	1	1	10342	-0.235816	-0.236948	0.00306055	2	0.0388857	13	909.397	-7.25191e-07
2	0	0	1	1	10355.3	-0.275825	-0.277767	0.00196208	2	0.0389159	13	922.733	-5.45002e-07
2	0	0	1	1	10368.6	-0.315834	-0.316224	0.000737204	2	0.0389306	13	936.069	-2.33121e-07
2	0	0	1	1	10382	-0.355842	-0.357253	-0.000703063	2	0.0389284	13	8.0017	2.51171e-07
2	0	0	1	1	10395.3	-0.395851	-0.397106	-0.0021401	2	0.0389079	13	21.338	8.49847e-07
2	0	0	1	1	10408.6	-0.43586	-0.437524	-0.00386369	2	0.0388666	13	34.6742	1.69046e-06
2	0	0	1	1	10422	-0.475868	-0.477175	-0.00582315	2	0.0388011	13	48.0104	2.77866e-06
2	0	0	1	1	10435.3	-0.515877	-0.517016	-0.00809004	2	0.0387079	13	61.3466	4.18268e-06
2	0	0	1	1	10448.6	-0.555886	-0.557648	-0.0104862	2	0.0385833	13	74.6828	5.8476e-06
2	0	0	1	1	10462	-0.595894	-0.597587	-0.0132113	2	0.0384244	13	88.019	7.89491e-06
2	0	0	1	1	10475.3	-0.635903	-0.63764	-0.0161335	2	0.0382283	13	101.355	1.02874e-05
2	0	0	1	1	10488.7	-0.675911	-0.677235	-0.0191925	2	0.0379923	13	114.691	1.29978e-05
2	0	0	1	1	10502	-0.71592	-0.717988	-0.022347	2	0.0377141	13	128.028	1.60449e-05
2	0	0	1	1	10515.3	-0.755929	-0.757477	-0.0259695	2	0.0373913	13	141.364	1.96713e-05
2	0	0	1	1	10528.7	-0.795938	-0.797749	-0.0296087	2	0.0370212	13	154.7	2.36203e-05
2	0	0	1	1	10542	-0.835946	-0.837267	-0.0334609	2	0.0366004	13	168.036	2.80157e-05
2	0	0	1	1	10555.3	-0.875955	-0.877331	-0.0378397	2	0.0361242	13	181.372	3.31979e-05
2	0	0	1	1	10568.7	-0.915963	-0.917335	-0.0427198	2	0.0355862	13	194.709	3.91883e-05
2	0	0	1	1	10582	-0.955972	-0.957548	-0.0479078	2	0.0349815	13	208.045	4.5874e-05
2	0	0	1	1	10595.3	-0.995981	-0.997824	-0.0538022	2	0.034304	13	221.381	5.36852e-05
2	0	0	1	0	10608.2	-0.965474	-0.967189	-0.0486846	2	0.033639	13	234.251	4.70872e-05
2	0	0	1	0	10621.5	-0.925465	-0.927172	-0.0430045	2	0.033029	13	247.587	3.98726e-05
2	0	0	1	0	10634.9	-0.885457	-0.887215	-0.0379008	2	0.0324903	13	260.923	3.36262e-05
2	0	0	1	0	10648.2	-0.845448	-0.846638	-0.0331586	2	0.0320172	13	274.26	2.80734e-05
2	0	0	1	0	10661.6	-0.80544	-0.807704	-0.0288012	2	0.0316056	13	287.596	2.32628e-05
2	0	0	1	0	10674.9	-0.765431	-0.767042	-0.0245518	2	0.0312514	13	300.932	1.88323e-05
2	0	0	1	0	10688.2	-0.725422	-0.727407	-0.0206013	2	0.0309519	13	314.268	1.49855e-05
2	0	0	1	0	10701.6	-0.685413	-0.686807	-0.0166821	2	0.0307045	13	327.605	1.14574e-05
2	0	0	1	0	10714.9	-0.645405	-0.64679	-0.0130505	2	0.0305072	13	340.941	8.44095e-06
2	0	0	1	0	10728.2	-0.605396	-0.607258	-0.00943755	2	0.0303582	13	354.277	5.73103e-06
2	0	0	1	0	10741.6	-0.565388	-0.56679	-0.00597287	2	0.030256	13	367.613	3.38536e-06
2	1	0	1	0	10754.9	-0.525379	-0.52699	-0.00255202	2	0.0302	13	380.949	1.34489e-06
2	1	0	1	0	10768.2	-0.48537	-0.487027	0.000788018	2	0.0301895	13	3.334	-3.83786e-07
2	1	0	1	0	10781.6	-0.445362	-0.446997	0.00390456	2	0.0302219	13	16.6702	-1.74533e-06
2	1	0	1	0	10794.9	-0.405353	-0.407199	0.00678921	3	0.0302943	13	30.0064	-2.76456e-06
2	1	0	1	0	10808.3	-0.365344	-0.366846	0.00954248	3	0.0304044	13	43.3427	-3.50062e-06
2	0	0	1	0	10821.6	-0.325336	-0.327405	0.0122773	3	0.0305507	13	56.6789	-4.01963e-06
2	1	0	1	0	10834.9	-0.285327	-0.286822	0.0146843	3	0.0307318	13	70.0151	-4.21179e-06
2	1	0	1	0	10848.3	-0.245318	-0.246677	0.0170822	3	0.0309459	13	83.3513	-4.21379e-06
2	1	0	1	0	10861.6	-0.20531	-0.206683	0.0193506	3	0.0311909	13	96.6875	-3.99943e-06
2	1	0	1	0	10874.9	-0.165301	-0.166883	0.0213641	3	0.0314643	13	110.024	-3.56531e-06
2	1	0	1	0	10888.3	-0.125292	-0.126887	0.0231312	3	0.0317629	13	123.36	-2.93504e-06
2	1	0	1	0	10901.6	-0.0852837	-0.0864427	0.0245142	3	0.0320835	13	136.696	-2.11907e-06
2	1	0	1	0	10914.9	-0.0452751	-0.0478766	0.0256351	3	0.0324216	13	150.032	-1.22732e-06
2	1	0	1	0	10928.3	-0.00526656	-0.00743357	0.0259683	3	0.0327694	13	163.369	-1.93038e-07
2	1	0	1	0	10941.6	0.034742	0.0328472	0.0257137	3	0.0331171	13	176.705	8.44623e-07
2	1	0	1	0	10955	0.0747506	0.0723405	0.0247986	3	0.0334562	13	190.041	1.79394e-06
2	1	0	1	0	10968.3	0.114759	0.113144	0.0236691	3	0.0337808	13	203.377	2.67802e-06
2	1	0	1	0	10981.6	0.154768	0.15344	0.0223948	3	0.0340883	13	216.713	3.43626e-06
2	1	0	1	0	10995	0.194777	0.193219	0.021324	3	0.0343803	13	230.05	4.12021e-06
2	1	0	1	0	11008.3	0.234785	0.233614	0.0207633	3	0.0346606	13	243.386	4.8506e-06
2	1	0	1	0	11021.6	0.274794	0.273191	0.0200853	3	0.0349326	13	256.722	5.48712e-06
2	1	0	1	0	11035	0.314802	0.313057	0.0197977	3	0.0351992	13	270.058	6.19781e-06
2	1	0	1	0	11048.3	0.354811	0.353538	0.0196701	3	0.0354626	13	283.394	6.95413e-06
2	1	0	1	0	11061.6	0.39482	0.393583	0.0196134	3	0.0357245	13	296.731	7.71952e-06
2	1	0	1	0	11075	0.434829	0.432516	0.0195481	3	0.0359864	13	310.067	8.45486e-06
2	1	0	1	0	11088.3	0.474837	0.473181	0.0198052	3	0.0362493	13	323.403	9.37147e-06
2	1	0	1	0	11101.7	0.514846	0.513237	0.019869	3	0.0365137	13	336.739	1.01975e-05
2	1	0	1	0	11115	0.554854	0.553533	0.0200627	3	0.0367802	13	350.076	1.11054e-05
2	1	0	1	0	11128.3	0.594863	0.592584	0.0202455	3	0.0370492	13	363.412	1.19971e-05
2	1	0	1	0	11141.7	0.634871	0.633338	0.0205223	3	0.0373214	13	376.748	1.29976e-05
2	1	0	1	0	11155	0.67488	0.673574	0.0207937	3	0.037597	13	390.084	1.40061e-05
2	1	0	1	0	11168.3	0.714889	0.713249	0.0210599	3	0.0378762	13	403.42	1.50209e-05
2	1	0	1	0	11181.7	0.754897	0.75435	0.021365	3	0.0381594	13	416.757	1.61167e-05
2	1	0	1	0	11195	0.794906	0.79329	0.021684	3	0.038447	13	430.093	1.72017e-05
2	1	0	1	0	11208.3	0.834915	0.833708	0.0219977	3	0.0387389	13	443.429	1.83396e-05
2	1	0	1	0	11221.7	0.874923	0.873612	0.0223761	3	0.0390353	13	456.765	1.9548e-05
2	1	0	1	0	11235	0.914932	0.913668	0.0227481	3	0.0393367	13	470.102	2.07842e-05
2	1	0	1	0	11248.3	0.954941	0.953431	0.0231061	3	0.0396429	13	483.438	2.20301e-05
2	1	0	1	0	11261.7	0.994949	0.993464	0.0235157	3	0.0399543	13	496.774	2.3362e-05
2	1	0	1	0	11274.6	0.966443	0.964105	0.0227899	3	0.0402524	13	509.644	2.19718e-05
2	1	0	1	0	11287.9	0.926435	0.925072	0.022035	3	0.0405506	13	522.98	2.03839e-05
2	1	0	1	0	11301.2	0.886426	0.88507	0.0214307	3	0.0408395	13	536.316	1.89677e-05
2	1	0	1	0	11314.6	0.846417	0.844962	0.0207456	3	0.0411201	13	549.652	1.75292e-05
2	1	0	1	0	11327.9	0.806409	0.80499	0.0201705	3	0.0413927	13	562.988	1.6237e-05
2	1	0	1	0	11341.2	0.7664	0.764715	0.019587	3	0.0416574	13	576.325	1.49785e-05
2	1	0	1	0	11354.6	0.726391	0.724821	0.0189792	3	0.0419145	13	589.661	1.37565e-05
2	1	0	1	0	11367.9	0.686383	0.684101	0.018338	3	0.0421639	13	602.997	1.2545e-05
2	1	0	1	0	11381.2	0.646374	0.644867	0.0178922	3	0.0424059	13	616.333	1.15381e-05
2	1	0	1	0	11394.6	0.606365	0.604878	0.0173405	3	0.0426407	13	629.67	1.04889e-05
2	1	0	1	0	11407.9	0.566357	0.565577	0.0167663	3	0.0428684	13	643.006	9.48264e-06
2	1	0	1	0	11421.3	0.526348	0.52504	0.0162772	3	0.0430888	13	656.342	8.54617e-06
2	1	0	1	0	11434.6	0.486339	0.484762	0.0156631	3	0.043302	13	669.678	7.59288e-06
2	1	0	1	0	11447.9	0.446331	0.444825	0.0151901	3	0.0435077	13	683.014	6.75691e-06
2	1	0	1	0	11461.3	0.406322	0.40483	0.0146405	3	0.0437059	13	696.351	5.92691e-06
2	1	0	1	0	11474.6	0.366314	0.364719	0.0140339	3	0.0438966	13	709.687	5.11843e-06
2	0	0	1	0	11487.9	0.326305	0.324468	0.0135283	3	0.0440795	13	723.023	4.38952e-06
2	1	0	1	0	11501.3	0.286297	0.284958	0.0128412	3	0.0442545	13	736.359	3.65921e-06
2	1	0	1	0	11514.6	0.246288	0.245596	0.0122013	3	0.0444213	13	749.695	2.99658e-06
2	1	0	1	0	11527.9	0.206279	0.204674	0.0115987	3	0.0445797	13	763.032	2.37396e-06
2	1	0	1	0	11541.3	0.166271	0.164881	0.0109565	3	0.0447296	13	776.368	1.80651e-06
2	1	0	1	0	11554.6	0.126262	0.124478	0.0102326	3	0.0448707	13	789.704	1.27373e-06
2	1	0	1	0	11568	0.086253	0.0848333	0.00958111	3	0.0450027	13	803.04	8.12797e-07
2	1	0	1	0	11581.3	0.0462444	0.045099	0.00871672	3	0.045125	13	816.377	3.93115e-07
2	1	0	1	0	11594.6	0.00623579	0.00475144	0.00802496	3	0.0452368	13	829.713	3.81301e-08
2	0	0	1	0	11608	-0.0337728	-0.034568	0.00721819	3	0.0453366	13	843.049	-2.49519e-07
2	0	0	1	0	11621.3	-0.0737814	-0.0758408	0.00602383	3	0.0454223	13	856.385	-4.56852e-07
2	1	0	1	0	11634.6	-0.11379	-0.115386	0.00450855	3	0.0454912	13	869.721	-5.20225e-07
2	1	0	1	0	11648	-0.153799	-0.156303	0.00304456	3	0.0455408	13	883.058	-4.75873e-07
2	0	0	1	0	11661.3	-0.193807	-0.195486	0.00234313	3	0.0455742	13	896.394	-4.5805e-07
2	0	0	1	0	11674.6	-0.233816	-0.235229	0.00206144	3	0.0456016	13	909.73	-4.84911e-07
2	0	0	1	0	11688	-0.273824	-0.275887	0.00141776	3	0.0456226	13	923.066	-3.9114e-07
2	0	0	1	0	11701.3	-0.313833	-0.315755	0.00042101	3	0.0456324	13	936.402	-1.32936e-07
2	1	0	1	0	11714.6	-0.353842	-0.355258	-0.000652781	3	0.0456295	13	9.3353	2.31905e-07
2	0	0	1	0	11728	-0.393851	-0.395366	-0.00170776	3	0.0456129	13	22.6715	6.75189e-07
2	0	0	1	0	11741.3	-0.433859	-0.435583	-0.00301813	3	0.0455803	13	36.0077	1.31465e-06
2	0	0	1	0	11754.7	-0.473868	-0.475604	-0.00466438	3	0.045528	13	49.344	2.2184e-06
2	0	0	1	0	11768	-0.513877	-0.515566	-0.00655619	3	0.0454527	13	62.6802	3.38015e-06
2	0	0	1	0	11781.3	-0.553885	-0.554752	-0.00863645	3	0.0453507	13	76.0164	4.79109e-06
2	0	0	1	0	11794.7	-0.593894	-0.595242	-0.0110047	3	0.0452187	13	89.3526	6.55045e-06
2	0	0	1	0	11808	-0.633902	-0.635363	-0.0136396	3	0.0450537	13	102.689	8.66612e-06
2	0	0	1	0	11821.3	-0.673911	-0.674839	-0.0162641	3	0.044853	13	116.025	1.09756e-05
2	0	0	1	0	11834.7	-0.71392	-0.71608	-0.0193549	3	0.0446137	13	129.361	1.38596e-05
2	0	0	1	0	11848	-0.753928	-0.755774	-0.0226363	3	0.0443331	13	142.697	1.71079e-05
2	0	0	1	0	11861.3	-0.793937	-0.795209	-0.0260628	3	0.0440085	13	156.034	2.07254e-05
2	0	0	1	0	11874.7	-0.833945	-0.835919	-0.0297941	3	0.0436364	13	169.37	2.49055e-05
2	0	0	1	0	11888	-0.873954	-0.875447	-0.0338208	3	0.0432127	13	182.706	2.96083e-05
2	0	0	1	0	11901.4	-0.913963	-0.915372	-0.0383479	3	0.0427316	13	196.042	3.51026e-05
2	0	0	1	0	11914.7	-0.953972	-0.955795	-0.0432084	3	0.042188	13	209.378	4.12984e-05
2	0	0	1	0	11928	-0.99398	-0.995607	-0.048701	3	0.0415757	13	222.715	4.8487e-05
2	0	0	1	1	11940.9	-0.967475	-0.968897	-0.0444471	3	0.0409674	13	235.585	4.30647e-05
2	0	0	1	1	11954.2	-0.927466	-0.929094	-0.039304	3	0.04041	13	248.921	3.65171e-05
2	0	0	1	1	11967.6	-0.887457	-0.888898	-0.0346201	3	0.0399182	13	262.257	3.07737e-05
2	0	0	1	1	11980.9	-0.847449	-0.848821	-0.0302253	3	0.0394867	13	275.593	2.56559e-05
2	0	0	1	1	11994.2	-0.80744	-0.809088	-0.0260481	3	0.0391115	13	288.929	2.10752e-05
2	0	0	1	1	12007.6	-0.767431	-0.768737	-0.0224039	3	0.0387889	13	302.266	1.72227e-05
2	0	0	1	1	12020.9	-0.727422	-0.728375	-0.0188469	3	0.0385158	13	315.602	1.37276e-05
2	0	0	1	1	12034.3	-0.687414	-0.68913	-0.015259	3	0.0382897	13	328.938	1.05154e-05
2	0	0	1	1	12047.6	-0.647405	-0.649036	-0.0119464	3	0.0381089	13	342.274	7.75366e-06
2	0	0	1	1	12060.9	-0.607397	-0.608713	-0.0085864	3	0.0379718	13	355.611	5.22665e-06
2	1	0	1	1	12074.3	-0.567388	-0.568903	-0.0056729	3	0.037877	13	368.947	3.22733e-06
2	1	0	1	1	12087.6	-0.52738	-0.528719	-0.0024911	3	0.0378241	13	382.283	1.31709e-06
2	1	0	1	1	12100.9	-0.487371	-0.488574	0.000551335	3	0.0378122	13	2.3338	-2.69368e-07
2	1	0	1	1	12114.3	-0.447362	-0.448682	0.00331645	3	0.0378388	13	15.67	-1.48803e-06
2	1	0	1	1	12127.6	-0.407354	-0.409132	0.00578231	4	0.0379008	13	29.0062	-2.36573e-06
2	1	0	1	1	12140.9	-0.367345	-0.36934	0.0081752	4	0.0379957	13	42.3425	-3.01943e-06
2	1	0	1	1	12154.3	-0.327336	-0.328765	0.0104724	4	0.0381219	13	55.6787	-3.44296e-06
2	1	0	1	1	12167.6	-0.287328	-0.288989	0.0125946	4	0.0382774	13	69.0149	-3.63969e-06
2	1	0	1	1	12181	-0.247319	-0.248846	0.0145297	4	0.03846	13	82.3511	-3.61567e-06
2	1	0	1	1	12194.3	-0.20731	-0.208821	0.016159	4	0.0386669	13	95.6874	-3.37435e-06
2	1	0	1	1	12207.6	-0.167301	-0.169095	0.017768	4	0.038895	13	109.024	-3.00448e-06
2	1	0	1	1	12221	-0.127293	-0.127851	0.0190476	4	0.0391407	13	122.36	-2.43526e-06
2	1	0	1	1	12234.3	-0.0872842	-0.0887591	0.0198622	4	0.0394009	13	135.696	-1.76295e-06
2	1	0	1	1	12247.6	-0.0472756	-0.0491022	0.0206244	4	0.0396718	13	149.032	-1.0127e-06
2	1	0	1	1	12261	-0.007267	-0.00865172	0.020596	4	0.0399476	13	162.368	-1.78191e-07
2	1	0	1	1	12274.3	0.0327416	0.0307484	0.0202569	4	0.0402219	13	175.705	6.22868e-07
2	1	0	1	1	12287.6	0.0727501	0.0718312	0.0197331	4	0.0404904	13	189.041	1.41745e-06
2	1	0	1	1	12301	0.112759	0.111446	0.0192171	4	0.0407514	13	202.377	2.14166e-06
2	1	0	1	1	12314.3	0.152767	0.151971	0.0185251	4	0.0410041	13	215.713	2.81529e-06
2	1	0	1	1	12327.6	0.192776	0.191302	0.0179537	4	0.041249	13	229.049	3.43457e-06
2	1	0	1	1	12341	0.232785	0.230769	0.0176034	4	0.0414877	13	242.386	4.06231e-06
2	1	0	1	1	12354.3	0.272793	0.272051	0.0173734	4	0.0417218	13	255.722	4.72646e-06
2	1	0	1	1	12367.7	0.312802	0.311351	0.0172708	4	0.0419527	13	269.058	5.37728e-06
2	1	0	1	1	12381	0.352811	0.351193	0.0171597	4	0.0421816	13	282.394	6.02636e-06
2	1	0	1	1	12394.3	0.392819	0.391348	0.0170655	4	0.0424097	13	295.731	6.67856e-06
2	1	0	1	1	12407.7	0.432828	0.431313	0.0170697	4	0.0426376	13	309.067	7.36239e-06
2	1	0	1	1	12421	0.472837	0.471377	0.0171092	4	0.0428659	13	322.403	8.06487e-06
2	1	0	1	1	12434.3	0.512845	0.511199	0.0171934	4	0.043095	13	335.739	8.78927e-06
2	1	0	1	1	12447.7	0.552854	0.551168	0.0174048	4	0.0433258	13	349.075	9.59295e-06
2	1	0	1	1	12461	0.592862	0.590587	0.0173911	4	0.0435584	13	362.412	1.0271e-05
2	1	0	1	1	12474.3	0.632871	0.631237	0.0176733	4	0.0437933	13	375.748	1.1156e-05
2	1	0	1	1	12487.7	0.67288	0.671273	0.017887	4	0.0440308	13	389.084	1.20071e-05
2	1	0	1	1	12501	0.712888	0.711069	0.0180844	4	0.0442711	13	402.42	1.28592e-05
2	1	0	1	1	12514.4	0.752897	0.751522	0.018303	4	0.0445143	13	415.756	1.37551e-05
2	1	0	1	1	12527.7	0.792906	0.791784	0.0186573	4	0.0447609	13	429.093	1.47726e-05
2	1	0	1	1	12541	0.832914	0.83134	0.0188372	4	0.045011	13	442.429	1.56601e-05
2	1	0	1	1	12554.4	0.872923	0.871635	0.0191238	4	0.0452645	13	455.765	1.6669e-05
2	1	0	1	1	12567.7	0.912932	0.911678	0.0194416	4	0.0455221	13	469.101	1.77245e-05
2	1	0	1	1	12581	0.95294	0.951373	0.0197564	4	0.045784	13	482.438	1.87957e-05
2	1	0	1	1	12594.4	0.992949	0.99144	0.0201129	4	0.0460502	13	495.774	1.99407e-05
2	1	0	1	1	12607.2	0.968443	0.967101	0.01953	4	0.0463059	13	508.644	1.88875e-05
2	1	0	1	1	12620.6	0.928435	0.927347	0.0189059	4	0.0465612	13	521.98	1.75323e-05
2	1	0	1	1	12633.9	0.888426	0.886054	0.0183184	4	0.0468086	13	535.316	1.62311e-05
2	1	0	1	1	12647.3	0.848418	0.84705	0.0177601	4	0.0470486	13	548.652	1.50437e-05
2	1	0	1	1	12660.6	0.808409	0.806717	0.0172147	4	0.0472814	13	561.989	1.38874e-05
2	1	0	1	1	12673.9	0.7684	0.766767	0.0167162	4	0.0475075	13	575.325	1.28174e-05
2	1	0	1	1	12687.3	0.728392	0.727143	0.0162775	4	0.0477269	13	588.661	1.1836e-05
2	1	0	1	1	12700.6	0.688383	0.687255	0.0157877	4	0.0479397	13	601.997	1.08502e-05
2	1	0	1	1	12713.9	0.648374	0.646537	0.0152869	4	0.0481461	13	615.333	9.88356e-06
2	1	0	1	1	12727.3	0.608366	0.606584	0.0148296	4	0.0483462	13	628.67	8.99542e-06
2	1	0	1	1	12740.6	0.568357	0.567006	0.0143937	4	0.0485404	13	642.006	8.16131e-06
2	1	0	1	1	12753.9	0.528348	0.526776	0.0138959	4	0.0487283	13	655.342	7.32002e-06
2	1	0	1	1	12767.3	0.48834	0.487188	0.0133989	4	0.04891	13	668.678	6.52781e-06
2	1	0	1	1	12780.6	0.448331	0.446648	0.0128842	4	0.0490853	13	682.015	5.75473e-06
2	0	0	1	1	12794	0.408323	0.40648	0.0125405	4	0.0492541	13	695.351	5.09745e-06
2	1	0	1	1	12807.3	0.368314	0.36631	0.0119168	4	0.0494163	13	708.687	4.36525e-06
2	0	0	1	1	12820.6	0.328305	0.3271	0.0115501	4	0.0495717	13	722.023	3.77804e-06
2	1	0	1	1	12834	0.288297	0.286977	0.0108876	4	0.0497202	13	735.359	3.1245e-06
2	1	0	1	1	12847.3	0.248288	0.246477	0.01038	4	0.0498615	13	748.696	2.55844e-06
2	1	0	1	1	12860.6	0.20828	0.206883	0.00983302	4	0.0499954	13	762.032	2.03429e-06
2	1	0	1	1	12874	0.168271	0.16678	0.00925683	4	0.0501218	13	775.368	1.54385e-06
2	1	0	1	1	12887.3	0.128262	0.127009	0.00866084	4	0.0502406	13	788.704	1.10001e-06
2	1	0	1	1	12900.6	0.0882536	0.0858511	0.00791812	4	0.0503513	13	802.04	6.79779e-07
2	1	0	1	1	12914	0.048245	0.0466834	0.00736026	4	0.0504535	13	815.377	3.43602e-07
2	1	0	1	1	12927.3	0.00823615	0.00665699	0.00666343	4	0.0505464	13	828.713	4.43584e-08
2	1	0	1	1	12940.6	-0.0317724	-0.0331993	0.00578172	4	0.0506287	13	842.049	-1.91949e-07
2	1	0	1	1	12954	-0.0717811	-0.0731427	0.00475477	4	0.0506985	13	855.385	-3.47777e-07
2	1	0	1	1	12967.3	-0.11179	-0.113202	0.0035084	4	0.0507529	13	868.722	-3.97157e-07
2	1	0	1	1	12980.7	-0.151798	-0.153167	0.00214518	4	0.0507889	13	882.058	-3.28572e-07
2	1	0	1	1	12994	-0.191807	-0.193192	0.00144133	4	0.0508097	13	895.394	-2.78453e-07
2	1	0	1	1	13007.3	-0.231815	-0.233213	0.00144504	4	0.0508277	13	908.73	-3.37003e-07
2	1	0	1	1	13020.7	-0.271824	-0.273391	0.00093843	4	0.0508427	13	922.066	-2.56558e-07
2	1	0	1	1	13034	-0.311833	-0.313358	2.52688e-05	4	0.0508484	13	935.403	-7.91817e-09
2	0	0	1	1	13047.3	-0.351841	-0.353461	-0.000604619	4	0.0508439	13	12.0025	2.13709e-07
2	0	0	1	1	13060.7	-0.39185	-0.393821	-0.00152475	4	0.0508285	13	25.3388	6.00476e-07
2	0	0	1	1	13074	-0.431859	-0.433751	-0.00262602	4	0.0508001	13	38.675	1.13904e-06
2	1	0	1	1	13087.3	-0.471867	-0.473237	-0.00404043	4	0.0507555	13	52.0112	1.91208e-06
2	1	0	1	1	13100.7	-0.511876	-0.513214	-0.00560952	4	0.0506913	13	65.3474	2.87888e-06
2	0	0	1	1	13114	-0.551885	-0.553128	-0.00742162	4	0.0506041	13	78.6837	4.1051e-06
2	0	0	1	1	13127.4	-0.591894	-0.593278	-0.00957243	4	0.0504906	13	92.0199	5.67911e-06
2	0	0	1	1	13140.7	-0.631902	-0.633275	-0.0119379	4	0.0503475	13	105.356	7.55995e-06
2	0	0	1	1	13154	-0.671911	-0.673752	-0.0144292	4	0.050172	13	118.692	9.72171e-06
2	0	0	1	1	13167.4	-0.711919	-0.713595	-0.0171643	4	0.0499611	13	132.028	1.22484e-05
2	0	0	1	1	13180.7	-0.751928	-0.753634	-0.0201407	4	0.0497118	13	145.365	1.51787e-05
2	0	0	1	1	13194	-0.791936	-0.793397	-0.0234298	4	0.0494213	13	158.701	1.85891e-05
2	0	0	1	1	13207.4	-0.831945	-0.833319	-0.0268539	4	0.0490862	13	172.037	2.23779e-05
2	0	0	1	1	13220.7	-0.871954	-0.874394	-0.0307492	4	0.0487026	13	185.373	2.68869e-05
2	0	0	1	1	13234	-0.911962	-0.912958	-0.0348756	4	0.0482658	13	198.709	3.184e-05
2	0	0	1	1	13247.4	-0.951971	-0.954006	-0.039526	4	0.0477708	13	212.046	3.77081e-05
2	0	0	1	1	13260.7	-0.99198	-0.993714	-0.0447945	4	0.0472107	13	225.382	4.4513e-05
2	0	0	1	0	13273.6	-0.969475	-0.97084	-0.0415042	4	0.0466468	13	238.252	4.02939e-05
2	0	0	1	0	13286.9	-0.929466	-0.930697	-0.0367176	4	0.0461285	13	251.588	3.4173e-05
2	0	0	1	0	13300.3	-0.889458	-0.890564	-0.0323872	4	0.0456704	13	264.924	2.88429e-05
2	0	0	1	0	13313.6	-0.849449	-0.850406	-0.0283049	4	0.0452678	13	278.261	2.40706e-05
2	0	0	1	0	13326.9	-0.80944	-0.811403	-0.0246254	4	0.0449172	13	291.597	1.99811e-05
2	0	0	1	0	13340.3	-0.769431	-0.771165	-0.0211025	4	0.0446152	13	304.933	1.62735e-05
2	0	0	1	0	13353.6	-0.729423	-0.731158	-0.017632	4	0.044359	13	318.269	1.28918e-05
2	0	0	1	0	13366.9	-0.689414	-0.690834	-0.0144238	4	0.0441463	13	331.605	9.96443e-06
2	0	0	1	0	13380.3	-0.649406	-0.650753	-0.0113707	4	0.0439754	13	344.942	7.39954e-06
2	0	0	1	0	13393.6	-0.609397	-0.611279	-0.00835797	4	0.0438449	13	358.278	5.10905e-06
2	0	0	1	0	13407	-0.569388	-0.570763	-0.00543762	4	0.0437535	13	371.614	3.10359e-06
2	0	0	1	0	13420.3	-0.52938	-0.531059	-0.0025544	4	0.0437007	13	384.95	1.35653e-06
2	0	0	1	0	13433.6	-0.489371	-0.491156	0.000255508	4	0.0436857	13	1.0002	-1.25494e-07
2	0	0	1	0	13447	-0.449363	-0.451071	0.00277589	4	0.043706	13	14.3364	-1.25212e-06
2	0	0	1	0	13460.3	-0.409354	-0.410965	0.00499938	5	0.0437582	13	27.6727	-2.05457e-06
2	1	0	1	0	13473.6	-0.369345	-0.370725	0.00709348	5	0.0438396	13	41.0089	-2.62973e-06
2	0	0	1	0	13487	-0.329337	-0.330728	0.00922399	5	0.0439485	13	54.3451	-3.05063e-06
2	1	0	1	0	13500.3	-0.289328	-0.289892	0.0109958	5	0.0440832	13	67.6813	-3.1876e-06
2	0	0	1	0	13513.6	-0.249319	-0.250615	0.0126704	5	0.0442411	13	81.0175	-3.17539e-06
2	1	0	1	0	13527	-0.20931	-0.211123	0.0138137	5	0.044419	13	94.3538	-2.91638e-06
2	1	0	1	0	13540.3	-0.169302	-0.170932	0.0149912	5	0.0446134	13	107.69	-2.56248e-06
2	1	0	1	0	13553.6	-0.129293	-0.131928	0.0157617	5	0.0448212	13	121.026	-2.07941e-06
2	1	0	1	0	13567	-0.0892847	-0.0909671	0.0164622	5	0.0450399	13	134.362	-1.49752e-06
2	1	0	1	0	13580.3	-0.0492761	-0.0504762	0.0171337	5	0.0452671	13	147.699	-8.64845e-07
2	1	0	1	0	13593.7	-0.00926749	-0.0103781	0.017397	5	0.0454994	13	161.035	-1.80548e-07
2	1	0	1	0	13607	0.0307411	0.0292671	0.0173237	5	0.0457319	13	174.371	5.07014e-07
2	1	0	1	0	13620.3	0.0707497	0.068718	0.0170365	5	0.0459614	13	187.707	1.17072e-06
2	1	0	1	0	13633.7	0.110758	0.109461	0.0165859	5	0.0461864	13	201.043	1.81552e-06
2	1	0	1	0	13647	0.150767	0.149419	0.0161588	5	0.0464055	13	214.38	2.41442e-06
2	1	0	1	0	13660.3	0.190776	0.189347	0.015727	5	0.0466186	13	227.716	2.97786e-06
2	1	0	1	0	13673.7	0.230784	0.229425	0.0153437	5	0.0468262	13	241.052	3.52022e-06
2	1	0	1	0	13687	0.270793	0.269465	0.0150459	5	0.0470292	13	254.388	4.05435e-06
2	1	0	1	0	13700.3	0.310802	0.308961	0.014753	5	0.0472286	13	267.724	4.55811e-06
2	1	0	1	0	13713.7	0.35081	0.34925	0.0146031	5	0.0474247	13	281.061	5.10015e-06
2	1	0	1	0	13727	0.390819	0.390293	0.0146194	5	0.0476192	13	294.397	5.70583e-06
2	1	0	1	0	13740.4	0.430828	0.429427	0.0144868	5	0.0478129	13	307.733	6.22103e-06
2	1	0	1	0	13753.7	0.470836	0.469782	0.014528	5	0.0480064	13	321.069	6.82499e-06
2	1	0	1	0	13767	0.510845	0.508826	0.0145483	5	0.0481997	13	334.406	7.40255e-06
2	1	0	1	0	13780.4	0.550853	0.549204	0.0145048	5	0.0483933	13	347.742	7.96611e-06
2	1	0	1	0	13793.7	0.590862	0.589632	0.0146022	5	0.0485875	13	361.078	8.60995e-06
2	1	0	1	0	13807	0.630871	0.628599	0.0146641	5	0.0487831	13	374.414	9.21787e-06
2	1	0	1	0	13820.4	0.670879	0.669216	0.014792	5	0.04898	13	387.75	9.89902e-06
2	1	0	1	0	13833.7	0.710888	0.709412	0.0149037	5	0.0491784	13	401.087	1.05729e-05
2	1	0	1	0	13847	0.750897	0.749464	0.014981	5	0.049378	13	414.423	1.12277e-05
2	1	0	1	0	13860.4	0.790905	0.789432	0.0151468	5	0.0495789	13	427.759	1.19573e-05
2	1	0	1	0	13873.7	0.830914	0.829346	0.0153373	5	0.0497829	13	441.095	1.272e-05
2	1	0	1	0	13887.1	0.870923	0.869365	0.0156623	5	0.0499904	13	454.432	1.36163e-05
2	1	0	1	0	13900.4	0.910931	0.909283	0.0159727	5	0.0502016	13	467.768	1.45237e-05
2	1	0	1	0	13913.7	0.95094	0.950159	0.0163351	5	0.0504169	13	481.104	1.5521e-05
2	1	0	1	0	13927.1	0.990948	0.989467	0.0165762	5	0.0506364	13	494.44	1.64016e-05
2	1	0	1	0	13939.9	0.970444	0.969561	0.0160289	5	0.0508476	13	507.31	1.5541e-05
2	1	0	1	0	13953.3	0.930435	0.929199	0.0155236	5	0.0510582	13	520.646	1.44245e-05
2	1	0	1	0	13966.6	0.890427	0.889017	0.0149592	5	0.0512611	13	533.983	1.3299e-05
2	1	0	1	0	13979.9	0.850418	0.849117	0.0144626	5	0.0514569	13	547.319	1.22804e-05
2	1	0	1	0	13993.3	0.810409	0.809122	0.0138951	5	0.0516455	13	560.655	1.12428e-05
2	1	0	1	0	14006.6	0.770401	0.769056	0.0134621	5	0.0518273	13	573.991	1.03531e-05
2	1	0	1	0	14019.9	0.730392	0.729065	0.0129542	5	0.0520027	13	587.327	9.44447e-06
2	1	0	1	0	14033.3	0.690383	0.689089	0.0124778	5	0.0521717	13	600.664	8.59833e-06
2	1	0	1	0	14046.6	0.650375	0.648114	0.0119918	5	0.0523345	13	614	7.77205e-06
2	1	0	1	0	14060	0.610366	0.609136	0.0115309	5	0.052491	13	627.336	7.02388e-06
2	1	0	1	0	14073.3	0.570358	0.568807	0.0111271	5	0.0526418	13	640.672	6.32915e-06
2	1	0	1	0	14086.6	0.530349	0.529575	0.0107058	5	0.0527868	13	654.008	5.66952e-06
2	1	0	1	0	14100	0.49034	0.48852	0.0103189	5	0.0529262	13	667.345	5.041e-06
2	1	0	1	0	14113.3	0.450332	0.448862	0.00986758	5	0.0530601	13	680.681	4.42918e-06
2	1	0	1	0	14126.6	0.410323	0.409188	0.00954083	5	0.0531887	13	694.017	3.90399e-06
2	1	0	1	0	14140	0.370314	0.369087	0.00914286	5	0.0533119	13	707.353	3.37451e-06
2	1	0	1	0	14153.3	0.330306	0.328715	0.00864045	5	0.0534296	13	720.69	2.84024e-06
2	1	0	1	0	14166.6	0.290297	0.288984	0.0082102	5	0.0535417	13	734.026	2.37262e-06
2	1	0	1	0	14180	0.250289	0.248475	0.00776427	5	0.053648	13	747.362	1.92922e-06
2	1	0	1	0	14193.3	0.21028	0.208899	0.00728314	5	0.0537485	13	760.698	1.52144e-06
2	1	0	1	0	14206.7	0.170271	0.168904	0.00689009	5	0.0538431	13	774.034	1.16377e-06
2	1	0	1	0	14220	0.130263	0.128632	0.00643981	5	0.0539315	13	787.371	8.28364e-07
2	1	0	1	0	14233.3	0.090254	0.0892739	0.0058736	5	0.0540138	13	800.707	5.24359e-07
2	0	0	1	0	14246.7	0.0502454	0.0485582	0.00549744	5	0.0540894	13	814.043	2.66946e-07
2	1	0	1	0	14260	0.0102368	0.00898945	0.00492275	5	0.0541579	13	827.379	4.42529e-08
2	0	0	1	0	14273.3	-0.0297718	-0.031876	0.00429894	5	0.0542179	13	840.715	-1.37033e-07
2	0	0	1	0	14286.7	-0.0697807	-0.0705783	0.00345424	5	0.0542677	13	854.052	-2.43795e-07
2	0	0	1	0	14300	-0.109789	-0.11096	0.00234842	5	0.0543043	13	867.388	-2.6058e-07
2	0	0	1	0	14313.3	-0.149798	-0.151785	0.00118751	5	0.0543251	13	880.724	-1.80246e-07
2	1	0	1	0	14326.7	-0.189807	-0.191239	0.000488651	5	0.0543328	13	894.06	-9.34491e-08
2	1	0	1	0	14340	-0.229815	-0.23154	0.000716556	5	0.0543397	13	907.397	-1.65911e-07
2	0	0	1	0	14353.4	-0.269824	-0.271407	0.000444068	5	0.0543462	13	920.733	-1.20523e-07
2	0	0	1	0	14366.7	-0.309832	-0.311416	-0.00013745	5	0.054346	13	6.6681	4.28041e-08
2	0	0	1	0	14380	-0.349841	-0.351693	-0.000733209	5	0.0543384	13	20.0043	2.57865e-07
2	0	0	1	0	14393.4	-0.38985	-0.391672	-0.00132225	5	0.0543231	13	33.3405	5.17889e-07
2	0	0	1	0	14406.7	-0.429858	-0.431646	-0.00225787	5	0.0542982	13	46.6767	9.746e-07
2	0	0	1	0	14420	-0.469867	-0.47157	-0.00330874	5	0.0542605	13	60.0129	1.5603e-06
2	0	0	1	0	14433.4	-0.509876	-0.511689	-0.00463249	5	0.0542066	13	73.3492	2.37039e-06
2	1	0	1	0	14446.7	-0.549884	-0.551143	-0.00633021	5	0.0541333	13	86.6854	3.48885e-06
2	0	0	1	0	14460	-0.589893	-0.59122	-0.00816218	5	0.0540368	13	100.022	4.82564e-06
2	0	0	1	0	14473.4	-0.629902	-0.631148	-0.0102739	5	0.0539139	13	113.358	6.48436e-06
2	0	0	1	0	14486.7	-0.66991	-0.671272	-0.0126247	5	0.0537616	13	126.694	8.47457e-06
2	0	0	1	0	14500.1	-0.709919	-0.711631	-0.0151926	5	0.0535768	13	140.03	1.08115e-05
2	0	0	1	0	14513.4	-0.749928	-0.751219	-0.0179503	5	0.0533564	13	153.366	1.34846e-05
2	0	0	1	0	14526.7	-0.789936	-0.791303	-0.0208773	5	0.0530974	13	166.703	1.65203e-05
2	0	0	1	0	14540.1	-0.829945	-0.830793	-0.0241024	5	0.0527966	13	180.039	2.00241e-05
2	0	0	1	0	14553.4	-0.869953	-0.871722	-0.027666	5	0.0524504	13	193.375	2.4117e-05
2	0	0	1	0	14566.7	-0.909962	-0.911641	-0.0315371	5	0.052055	13	206.711	2.87505e-05
2	0	0	1	0	14580.1	-0.949971	-0.951415	-0.0358034	5	0.0516056	13	220.047	3.40639e-05
2	0	0	1	0	14593.4	-0.989979	-0.99138	-0.0407988	5	0.0510948	13	233.384	4.04471e-05
2	0	0	1	1	14606.3	-0.971475	-0.97351	-0.0384114	5	0.0505731	13	246.254	3.73939e-05
2	0	0	1	1	14619.6	-0.931467	-0.932795	-0.0339712	5	0.0500921	13	259.59	3.16881e-05
2	0	0	1	1	14632.9	-0.891458	-0.893086	-0.0299894	5	0.0496668	13	272.926	2.67831e-05
2	0	0	1	1	14646.3	-0.85145	-0.852827	-0.0262652	5	0.0492925	13	286.262	2.23997e-05
2	0	0	1	1	14659.6	-0.811441	-0.812865	-0.0228001	5	0.0489664	13	299.599	1.85334e-05
2	0	0	1	1	14673	-0.771432	-0.773139	-0.0195065	5	0.0486855	13	312.935	1.50813e-05
2	0	0	1	1	14686.3	-0.731423	-0.733186	-0.0163747	5	0.0484468	13	326.271	1.20057e-05
2	0	0	1	1	14699.6	-0.691415	-0.693237	-0.0135089	5	0.0482483	13	339.607	9.36491e-06
2	0	0	1	1	14713	-0.651406	-0.65304	-0.0106139	5	0.0480885	13	352.943	6.93131e-06
2	0	0	1	1	14726.3	-0.611398	-0.612445	-0.00780451	5	0.0479658	13	366.28	4.77983e-06
2	0	0	1	1	14739.6	-0.571389	-0.572784	-0.00523224	5	0.047879	13	379.616	2.99694e-06
2	1	0	1	1	14753	-0.53138	-0.532735	-0.00262071	5	0.0478275	13	392.952	1.39615e-06
2	0	0	1	1	14766.3	-0.491372	-0.493044	-3.48026e-05	5	0.0478106	13	406.288	1.71592e-08
2	0	0	1	1	14779.6	-0.451363	-0.453224	0.00229274	5	0.0478259	13	13.0028	-1.03912e-06
2	1	0	1	1	14792.4	-0.413155	-0.414541	0.00405034	6	0.0478669	13	25.739	-1.67903e-06
2	1	0	1	1	14805.7	-0.373146	-0.374388	0.00587221	6	0.0479347	13	39.0752	-2.19849e-06
2	1	0	1	1	14819.1	-0.333137	-0.334632	0.00762242	6	0.0480263	13	52.4114	-2.5507e-06
2	0	0	1	1	14832.4	-0.293129	-0.294958	0.00924205	6	0.0481399	13	65.7476	-2.72602e-06
2	1	0	1	1	14845.7	-0.25312	-0.254356	0.0104925	6	0.0482729	13	79.0838	-2.66884e-06
2	1	0	1	1	14859.1	-0.213112	-0.213857	0.0115622	6	0.048422	13	92.42	-2.47266e-06
2	1	0	1	1	14872.4	-0.173103	-0.174751	0.0124127	6	0.0485835	13	105.756	-2.16914e-06
2	0	0	1	1	14885.7	-0.133094	-0.135075	0.0130856	6	0.0487546	13	119.092	-1.76755e-06
2	1	0	1	1	14899.1	-0.0930857	-0.0945263	0.0135361	6	0.0489332	13	132.429	-1.27952e-06
2	1	0	1	1	14912.4	-0.0530768	-0.0546537	0.0139658	6	0.049118	13	145.765	-7.63284e-07
2	1	0	1	1	14925.7	-0.0130682	-0.0144514	0.014078	6	0.0493068	13	159.101	-2.03448e-07
2	1	0	1	1	14939.1	0.0269404	0.0249084	0.0139783	6	0.0494958	13	172.437	3.48175e-07
2	1	0	1	1	14952.4	0.0669489	0.0653429	0.0138881	6	0.0496827	13	185.773	9.07488e-07
2	1	0	1	1	14965.8	0.106958	0.104837	0.0136716	6	0.0498668	13	199.11	1.43328e-06
2	1	0	1	1	14979.1	0.146966	0.145676	0.0133474	6	0.0500475	13	212.446	1.94439e-06
2	1	0	1	1	14992.4	0.186975	0.186007	0.0130578	6	0.0502241	13	225.782	2.42884e-06
2	1	0	1	1	15005.8	0.226984	0.225421	0.0127178	6	0.0503965	13	239.118	2.86686e-06
2	1	0	1	1	15019.1	0.266992	0.265565	0.0127059	6	0.0505663	13	252.455	3.37425e-06
2	1	0	1	1	15032.4	0.307001	0.305026	0.0124651	6	0.0507342	13	265.791	3.80218e-06
2	1	0	1	1	15045.8	0.347009	0.345396	0.0123392	6	0.0509001	13	279.127	4.26192e-06
2	1	0	1	1	15059.1	0.387018	0.385615	0.012364	6	0.0510654	13	292.463	4.76773e-06
2	1	0	1	1	15072.4	0.427027	0.425639	0.0123452	6	0.0512308	13	305.799	5.25462e-06
2	1	0	1	1	15085.8	0.467035	0.465616	0.0125197	6	0.0513968	13	319.136	5.82935e-06
2	1	0	1	1	15099.1	0.507044	0.505531	0.0124945	6	0.0515636	13	332.472	6.31635e-06
2	1	0	1	1	15112.5	0.547053	0.545874	0.0125365	6	0.0517316	13	345.808	6.84334e-06
2	1	0	1	1	15125.8	0.587061	0.584892	0.0127149	6	0.051901	13	359.144	7.43687e-06
2	1	0	1	1	15139.1	0.62707	0.625475	0.01289	6	0.052072	13	372.48	8.06235e-06
2	1	0	1	1	15152.5	0.667079	0.665836	0.0129306	6	0.0522446	13	385.817	8.60967e-06
2	1	0	1	1	15165.8	0.707087	0.705817	0.0131788	6	0.0524189	13	399.153	9.30186e-06
2	1	0	1	1	15179.1	0.747096	0.745724	0.0132251	6	0.0525951	13	412.489	9.86231e-06
2	1	0	1	1	15192.5	0.787104	0.784662	0.0132954	6	0.0527731	13	425.825	1.04324e-05
2	1	0	1	1	15205.8	0.827113	0.825836	0.0136093	6	0.0529535	13	439.162	1.12391e-05
2	1	0	1	1	15219.1	0.867122	0.865569	0.0137249	6	0.053136	13	452.498	1.18799e-05
2	1	0	1	1	15232.5	0.90713	0.905521	0.013857	6	0.0533204	13	465.834	1.25478e-05
2	1	0	1	1	15245.8	0.947139	0.945752	0.0140058	6	0.0535067	13	479.17	1.3246e-05
2	1	0	1	1	15259.2	0.987148	0.985648	0.0142264	6	0.0536956	13	492.506	1.40223e-05
2	1	0	1	1	15272	0.974445	0.973047	0.0138406	6	0.0538765	13	505.31	1.34675e-05
2	1	0	1	1	15285.3	0.934436	0.93313	0.0133438	6	0.0540575	13	518.646	1.24515e-05
2	1	0	1	1	15298.6	0.894427	0.892949	0.0128796	6	0.0542321	13	531.982	1.15008e-05
2	1	0	1	1	15312	0.854419	0.852922	0.0123907	6	0.0544005	13	545.318	1.05683e-05
2	1	0	1	1	15325.3	0.81441	0.812782	0.0119973	6	0.0545631	13	558.655	9.75116e-06
2	1	0	1	1	15338.6	0.774402	0.772734	0.011584	6	0.0547202	13	571.991	8.95136e-06
2	1	0	1	1	15352	0.734393	0.733045	0.0112249	6	0.0548721	13	585.327	8.22833e-06
2	1	0	1	1	15365.3	0.694384	0.693013	0.0109337	6	0.0550191	13	598.663	7.57721e-06
2	1	0	1	1	15378.6	0.654376	0.653028	0.0105089	6	0.0551611	13	611.999	6.86263e-06
2	1	0	1	1	15392	0.614367	0.61277	0.0100796	6	0.0552983	13	625.336	6.17649e-06
2	1	0	1	1	15405.3	0.574358	0.57262	0.00973706	6	0.0554306	13	638.672	5.57563e-06
2	1	0	1	1	15418.7	0.53435	0.53302	0.0093936	6	0.0555581	13	652.008	5.00698e-06
2	1	0	1	1	15432	0.494341	0.492804	0.00897767	6	0.0556804	13	665.344	4.42423e-06
2	1	0	1	1	15445.3	0.454333	0.452823	0.00857492	6	0.0557969	13	678.68	3.88292e-06
2	1	0	1	1	15458.7	0.414324	0.413034	0.00815848	6	0.0559085	13	692.017	3.36973e-06
2	1	0	1	1	15472	0.374315	0.372775	0.00772254	6	0.0560152	13	705.353	2.87877e-06
2	1	0	1	1	15485.3	0.334307	0.332997	0.00747317	6	0.0561169	13	718.689	2.48854e-06
2	1	0	1	1	15498.7	0.294298	0.292876	0.00710543	6	0.0562138	13	732.025	2.08101e-06
2	1	0	1	1	15512	0.254289	0.252953	0.00674017	6	0.0563056	13	745.362	1.70495e-06
2	1	0	1	1	15525.3	0.214281	0.212596	0.00632764	6	0.0563924	13	758.698	1.34523e-06
2	1	0	1	1	15538.7	0.174272	0.17261	0.00594224	6	0.0564742	13	772.034	1.02569e-06
2	1	0	1	1	15552	0.134264	0.132914	0.00558762	6	0.0565507	13	785.37	7.42674e-07
2	1	0	1	1	15565.4	0.094255	0.0926239	0.00515711	6	0.0566217	13	798.706	4.77672e-07
2	1	0	1	1	15578.7	0.0542464	0.0526147	0.00473794	6	0.0566872	13	812.043	2.49285e-07
2	1	0	1	1	15592	0.0142378	0.0122968	0.00420942	6	0.0567463	13	825.379	5.17626e-08
2	1	0	1	1	15605.4	-0.0257711	-0.0272818	0.00364019	6	0.056798	13	838.715	-9.93109e-08
2	1	0	1	1	15618.7	-0.0657796	-0.066787	0.00289197	6	0.0568404	13	852.051	-1.93146e-07
2	0	0	1	1	15632	-0.105788	-0.107593	0.00192119	6	0.0568708	13	865.387	-2.06706e-07
2	1	0	1	1	15645.4	-0.145797	-0.147636	0.000562603	6	0.0568863	13	878.724	-8.30604e-08
2	0	0	1	1	15658.7	-0.185806	-0.18715	0.000172578	6	0.056889	13	892.06	-3.22979e-08
2	1	0	1	1	15672	-0.225814	-0.227553	0.000408462	6	0.0568911	13	905.396	-9.29467e-08
2	1	0	1	1	15685.4	-0.265823	-0.267335	0.000205681	6	0.0568943	13	918.732	-5.49858e-08
2	1	0	1	1	15698.7	-0.305832	-0.307298	-0.00029239	6	0.0568923	13	10.669	8.98509e-08
2	0	0	1	1	15712	-0.34584	-0.347442	-0.000728204	6	0.0568842	13	24.0052	2.53008e-07
2	1	0	1	1	15725.4	-0.385849	-0.388178	-0.00139897	6	0.0568698	13	37.3414	5.4305e-07
2	0	0	1	1	15738.7	-0.425857	-0.427193	-0.00193108	6	0.0568475	13	50.6776	8.24944e-07
2	0	0	1	1	15752.1	-0.465866	-0.467459	-0.00285229	6	0.0568146	13	64.0138	1.33333e-06
2	0	0	1	1	15765.4	-0.505875	-0.507486	-0.00397725	6	0.0567684	13	77.35	2.0184e-06
2	1	0	1	1	15778.7	-0.545883	-0.547191	-0.00539533	6	0.0567056	13	90.6863	2.95228e-06
2	0	0	1	1	15792.1	-0.585892	-0.587659	-0.00693289	6	0.0566228	13	104.022	4.07418e-06
2	0	0	1	1	15805.4	-0.625901	-0.627812	-0.0088977	6	0.056517	13	117.359	5.58608e-06
2	0	0	1	1	15818.7	-0.665909	-0.666786	-0.010946	6	0.056385	13	130.695	7.29862e-06
2	0	0	1	1	15832.1	-0.705918	-0.707605	-0.0132275	6	0.0562238	13	144.031	9.35988e-06
2	0	0	1	1	15845.4	-0.745927	-0.747203	-0.015786	6	0.0560302	13	157.367	1.17953e-05
2	0	0	1	1	15858.7	-0.785935	-0.787519	-0.0184202	6	0.0558014	13	170.704	1.45062e-05
2	0	0	1	1	15872.1	-0.825944	-0.828037	-0.0215302	6	0.0555342	13	184.04	1.78278e-05
2	0	0	1	1	15885.4	-0.865953	-0.86691	-0.0247812	6	0.0552255	13	197.376	2.14831e-05
2	0	0	1	1	15898.8	-0.905961	-0.906485	-0.0281416	6	0.0548717	13	210.712	2.55099e-05
2	0	0	1	1	15912.1	-0.94597	-0.947717	-0.0321261	6	0.0544689	13	224.048	3.04465e-05
2	0	0	1	1	15925.4	-0.985978	-0.987338	-0.036751	6	0.0540102	13	237.385	3.62857e-05
2	0	0	1	0	15938.3	-0.975476	-0.978083	-0.0356913	6	0.0535304	13	250.255	3.4909e-05
2	0	0	1	0	15951.6	-0.935468	-0.936252	-0.0313807	6	0.0530845	13	263.591	2.93802e-05
2	0	0	1	0	15965	-0.895459	-0.897149	-0.0278783	6	0.0526897	13	276.927	2.5011e-05
2	0	0	1	0	15978.3	-0.85545	-0.856838	-0.0244512	6	0.0523418	13	290.263	2.09507e-05
2	0	0	1	0	15991.6	-0.815441	-0.81709	-0.021264	6	0.0520381	13	303.6	1.73746e-05
2	0	0	1	0	16005	-0.775433	-0.777086	-0.0182697	6	0.0517757	13	316.936	1.41971e-05
2	0	0	1	0	16018.3	-0.735424	-0.736932	-0.0154517	6	0.0515521	13	330.272	1.13869e-05
2	0	0	1	0	16031.7	-0.695416	-0.6967	-0.0126004	6	0.0513656	13	343.608	8.77871e-06
2	0	0	1	0	16045	-0.655407	-0.657397	-0.0100503	6	0.0512145	13	356.944	6.60702e-06
2	1	0	1	0	16058.3	-0.615398	-0.61643	-0.00766227	6	0.0510976	13	370.281	4.72325e-06
2	0	0	1	0	16071.7	-0.57539	-0.577085	-0.00517207	6	0.0510134	13	383.617	2.98472e-06
2	1	0	1	0	16085	-0.535381	-0.536697	-0.00282	6	0.0509613	13	396.953	1.51349e-06
2	1	0	1	0	16098.3	-0.495373	-0.497416	-0.00057024	6	0.0509409	13	410.289	2.83646e-07
2	1	0	1	0	16111.7	-0.455364	-0.456849	0.00161072	6	0.0509499	13	10.669	-7.35858e-07
2	1	0	1	0	16117.2	-0.43881	-0.44096	0.00545878	6	0.0509612	13	0.000000000000000E+000	-2.4071e-06