File: resorufin_10x_frittedTiCt_FTOWE_AgAgClref_N2sparge_3_16_CV_C12/resorufin_10x_frittedTiCt_FTOWE_AgAgClref_N2sparge_3_14_CV_C12.txt
EC-Lab ASCII FILE
Nb header lines : 59

Cyclic Voltammetry

Run on channel : 12 (SN 15159)
User :
CE vs. WE compliance from -10 V to 10 V
Electrode connection : standard
Potential control : Ewe
Ewe ctrl range : min = -2.50 V, max = 2.50 V
Safety Limits :
	Do not start on E overload
Acquisition started on : 06/27/2024 22:37:21.030
Technique started on : 06/27/2024 23:11:37.769
Loaded Setting File :  NONE
Saved on :
	File : resorufin_10x_frittedTiCt_FTOWE_AgAgClref_N2sparge_3_14_CV_C12.mpr
	Directory : C:\Users\user\OneDrive - California Institute of Technology\Desktop\Big James\06272024_resorufin_spEC_test\
	Host : 10.8.34.190
Device : VMP3 (SN 1026)
Address : 131.215.231.69
EC-Lab for windows v11.50 (software)
Internet server v11.52 (firmware)
Command interpretor v11.50 (firmware)
Electrode material : Au/Pd
Initial state :
Electrolyte : NaCl (0.2M)
Comments : Fe(CN)63-/Fe(CN)64- 5.10-3 M
Reference electrode : SCE Saturated Calomel Electrode (0.241 V)
Electrode surface area : 0.001 cm²
Characteristic mass : 0.001 g
Equivalent Weight : 0.000 g/eq.
Density : 0.000 g/cm3
Volume (V) : 0.001 cm³
Cycle Definition : Charge/Discharge alternance
Ei (V)              0.000
vs.                 Eoc
dE/dt               12.000
dE/dt unit          mV/s
E1 (V)              1.000
vs.                 Ref
Step percent        50
N                   10
E range min (V)     -2.500
E range max (V)     2.500
I Range             Auto
I Range min         Unset
I Range max         Unset
I Range init        Unset
Bandwidth           5
E2 (V)              -1.000
vs.                 Ref
nc cycles           5
Reverse Scan        1
Ef (V)              0.000
vs.                 Eoc

mode	ox/red	error	control changes	counter inc.	time/s	control/V	Ewe/V	<I>/mA	cycle number	(Q-Qo)/C	I Range	step time/s	P/W
2	0	0	1	0	2056.74	-0.383998	-0.385611	-0.00171604	1	0.0000000E+000	13	0.000000000000000E+000	6.61725e-07
2	1	0	1	0	2060.04	-0.344441	-0.345946	0.00572238	1	1.04281e-05	13	3.2506	-1.97963e-06
2	1	0	1	0	2063.37	-0.30443	-0.305886	0.0112606	1	3.9974e-05	13	6.5848	-3.44446e-06
2	1	0	1	0	2066.7	-0.264423	-0.265945	0.0168173	1	8.80869e-05	13	9.9188	-4.47248e-06
2	1	0	1	0	2070.04	-0.224415	-0.225949	0.0222905	1	0.000154341	13	13.2528	-5.03651e-06
2	1	0	1	0	2073.37	-0.184405	-0.185947	0.0275451	1	0.000238223	13	16.5869	-5.12194e-06
2	1	0	1	0	2076.71	-0.144396	-0.145946	0.0325367	1	0.000339163	13	19.921	-4.7486e-06
2	1	0	1	0	2080.04	-0.104388	-0.106307	0.037708	1	0.000456659	13	23.255	-4.00861e-06
2	1	0	1	0	2083.37	-0.0643801	-0.0658072	0.0426952	1	0.000590503	13	26.589	-2.80965e-06
2	1	0	1	0	2086.71	-0.024371	-0.0259121	0.0472837	1	0.000740427	13	29.9231	-1.22522e-06
2	1	0	1	0	2090.04	0.0156387	0.014166	0.0515701	1	0.000905449	13	33.2572	7.30544e-07
2	1	0	1	0	2093.38	0.0556466	0.054293	0.0557404	1	0.00108465	13	36.5912	3.02631e-06
2	1	0	1	0	2096.71	0.0956544	0.0942388	0.0596484	1	0.00127752	13	39.9252	5.62119e-06
2	1	0	1	0	2100.04	0.135665	0.134114	0.0634935	1	0.0014835	13	43.2594	8.51535e-06
2	1	0	1	0	2103.38	0.175672	0.174258	0.0669088	1	0.00170174	13	46.5934	1.16594e-05
2	1	0	1	0	2106.71	0.215681	0.214188	0.0699654	1	0.00193126	13	49.9274	1.49858e-05
2	1	0	1	0	2110.05	0.255689	0.25422	0.0731702	1	0.00217112	13	53.2614	1.86013e-05
2	1	0	1	0	2113.38	0.295699	0.29424	0.0759663	1	0.00242046	13	56.5956	2.23523e-05
2	1	0	1	0	2116.71	0.335707	0.334253	0.0786434	1	0.00267841	13	59.9296	2.62868e-05
2	1	0	1	0	2120.05	0.375715	0.374201	0.0808699	1	0.0029442	13	63.2636	3.02616e-05
2	1	0	1	0	2123.38	0.415724	0.414307	0.0828786	1	0.00321711	13	66.5977	3.43372e-05
2	1	0	1	0	2126.72	0.455734	0.454201	0.0845418	1	0.0034964	13	69.9318	3.83989e-05
2	1	0	1	0	2130.05	0.495741	0.494304	0.0861937	1	0.0037814	13	73.2658	4.26059e-05
2	1	0	1	0	2133.38	0.535749	0.534187	0.0874832	1	0.00407146	13	76.5998	4.67324e-05
2	1	0	1	0	2136.72	0.575758	0.574272	0.0886164	1	0.00436599	13	79.9339	5.08899e-05
2	1	0	1	0	2140.05	0.615768	0.614315	0.0897846	1	0.00466444	13	83.268	5.5156e-05
2	1	0	1	0	2143.39	0.655776	0.654286	0.0908043	1	0.00496629	13	86.602	5.94119e-05
2	1	0	1	0	2146.72	0.695784	0.694254	0.0916721	1	0.0052711	13	89.936	6.36437e-05
2	1	0	1	0	2150.05	0.735794	0.734341	0.0925776	1	0.00557861	13	93.2702	6.79835e-05
2	1	0	1	0	2153.39	0.775802	0.774273	0.0933141	1	0.00588863	13	96.6042	7.22506e-05
2	1	0	1	0	2156.75	0.81611	0.814713	0.0946964	1	0.00620433	12	99.9632	7.71503e-05
2	1	0	1	0	2160.08	0.856119	0.854778	0.0952908	1	0.00652101	12	103.297	8.14525e-05
2	1	0	1	0	2163.42	0.896129	0.894763	0.0962484	1	0.00684042	12	106.631	8.61195e-05
2	1	0	1	0	2166.75	0.936136	0.934739	0.0973868	1	0.00716278	12	109.965	9.10313e-05
2	1	0	1	0	2170.08	0.976144	0.974782	0.09831	1	0.00748829	12	113.299	9.58308e-05
2	1	0	1	0	2173.29	0.985446	0.98405	0.0967493	1	0.00780241	12	116.501	9.52061e-05
2	1	0	1	0	2176.62	0.945438	0.944064	0.092457	1	0.0081172	12	119.835	8.72854e-05
2	1	0	1	0	2179.95	0.90543	0.904008	0.0887052	1	0.00841846	12	123.169	8.01902e-05
2	1	0	1	0	2183.29	0.865422	0.864019	0.0852463	1	0.00870772	12	126.503	7.36544e-05
2	1	0	1	0	2186.62	0.825412	0.82398	0.0820294	1	0.00898597	12	129.837	6.75906e-05
2	1	0	1	0	2189.96	0.785404	0.783926	0.0790266	1	0.00925385	12	133.171	6.1951e-05
2	1	0	1	0	2193.29	0.745396	0.743929	0.076145	1	0.00951187	12	136.505	5.66465e-05
2	1	0	1	0	2196.62	0.705386	0.703875	0.0732844	1	0.00976042	12	139.839	5.15831e-05
2	1	0	1	0	2199.96	0.665377	0.663916	0.0705504	1	0.00999978	12	143.173	4.68395e-05
2	1	0	1	0	2203.29	0.625369	0.623889	0.0678669	1	0.0102301	12	146.507	4.23414e-05
2	1	0	1	0	2206.63	0.585362	0.58391	0.0653007	1	0.0104517	12	149.841	3.81298e-05
2	1	0	1	0	2209.96	0.545352	0.543845	0.0627546	1	0.0106646	12	153.175	3.41287e-05
2	1	0	1	0	2213.29	0.505343	0.503896	0.0602399	1	0.0108689	12	156.509	3.03546e-05
2	1	0	1	0	2216.63	0.465335	0.463761	0.0578256	1	0.0110647	12	159.843	2.68173e-05
2	1	0	1	0	2219.96	0.425327	0.424016	0.0553441	1	0.0112521	12	163.177	2.34668e-05
2	1	0	1	0	2223.3	0.385317	0.383742	0.0524244	1	0.011431	12	166.512	2.01174e-05
2	1	0	1	0	2226.63	0.345309	0.343884	0.0501174	1	0.0116016	12	169.846	1.72346e-05
2	1	0	1	0	2229.96	0.3053	0.303934	0.0475815	1	0.0117637	12	173.18	1.44616e-05
2	1	0	1	0	2233.3	0.265293	0.263886	0.0447708	1	0.0119173	12	176.514	1.18144e-05
2	1	0	1	0	2236.66	0.224982	0.223396	0.0416955	1	0.0120619	13	179.873	9.31463e-06
2	1	0	1	0	2239.99	0.184974	0.183498	0.0389568	1	0.0121966	13	183.207	7.14848e-06
2	1	0	1	0	2243.33	0.144967	0.143491	0.0364587	1	0.0123225	13	186.541	5.23151e-06
2	1	0	1	0	2246.66	0.104957	0.103459	0.0339057	1	0.0124394	13	189.875	3.50786e-06
2	1	0	1	0	2249.99	0.0649478	0.0633182	0.0311691	1	0.012547	13	193.209	1.97357e-06
2	1	0	1	0	2253.33	0.02494	0.0235139	0.0282431	1	0.0126449	13	196.543	6.64106e-07
2	1	0	1	0	2256.66	-0.0150679	-0.0167431	0.0246777	1	0.0127326	13	199.877	-4.13182e-07
2	1	0	1	0	2260	-0.0550781	-0.0566556	0.0210905	1	0.0128089	13	203.211	-1.19489e-06
2	1	0	1	0	2263.33	-0.0950862	-0.0966165	0.0171433	1	0.0128728	13	206.545	-1.65633e-06
2	1	0	1	0	2266.66	-0.135095	-0.136634	0.0131366	1	0.0129236	13	209.879	-1.7949e-06
2	1	0	1	0	2270	-0.175102	-0.176641	0.00981896	1	0.0129618	13	213.213	-1.73443e-06
2	1	0	1	0	2273.33	-0.215113	-0.216677	0.00728225	1	0.0129897	13	216.547	-1.5779e-06
2	1	0	1	0	2276.67	-0.255121	-0.256714	0.00445476	1	0.0130084	13	219.881	-1.1436e-06
2	0	0	1	0	2280	-0.295129	-0.296949	0.00118234	1	0.0130162	13	223.215	-3.51096e-07
2	0	0	1	0	2283.33	-0.335137	-0.336713	-0.00248041	1	0.0130123	13	2.6672	8.35184e-07
2	0	0	1	0	2286.67	-0.375147	-0.376689	-0.00562349	1	0.0129972	13	6.0014	2.11831e-06
2	0	0	1	0	2290	-0.415155	-0.416849	-0.00960355	1	0.0129707	13	9.3354	4.00323e-06
2	0	0	1	0	2293.34	-0.455163	-0.456707	-0.0130527	1	0.0129328	13	12.6694	5.96126e-06
2	0	0	1	0	2296.67	-0.495172	-0.496688	-0.016842	1	0.0128827	13	16.0035	8.36523e-06
2	0	0	1	0	2300	-0.535182	-0.536709	-0.0204024	1	0.0128199	13	19.3376	1.09502e-05
2	0	0	1	0	2303.34	-0.57519	-0.576727	-0.0247229	1	0.0127435	13	22.6716	1.42583e-05
2	0	0	1	0	2306.67	-0.615197	-0.616686	-0.0290085	1	0.012653	13	26.0056	1.78891e-05
2	0	0	1	0	2310.01	-0.655208	-0.65676	-0.0337657	1	0.0125479	13	29.3398	2.2176e-05
2	0	0	1	0	2313.34	-0.695216	-0.696735	-0.0383244	1	0.0124278	13	32.6738	2.67019e-05
2	0	0	1	0	2316.67	-0.735224	-0.73674	-0.0431171	1	0.0122922	13	36.0078	3.17661e-05
2	0	0	1	0	2320.01	-0.775232	-0.776782	-0.0478363	1	0.0121409	13	39.3418	3.71584e-05
2	0	0	1	0	2323.34	-0.815242	-0.816749	-0.0526035	1	0.0119734	13	42.676	4.29638e-05
2	0	0	1	0	2326.68	-0.85525	-0.856877	-0.0576188	1	0.0117891	13	46.01	4.93722e-05
2	0	0	1	0	2330.01	-0.895258	-0.896856	-0.0627856	1	0.0115874	13	49.344	5.63097e-05
2	0	0	1	0	2333.34	-0.935267	-0.936764	-0.0687414	1	0.0113666	13	52.678	6.43945e-05
2	0	0	1	0	2336.68	-0.975277	-0.976826	-0.0750299	1	0.0111252	13	56.0122	7.32911e-05
2	0	0	1	1	2339.87	-0.986479	-0.987994	-0.0761868	1	0.0108782	13	59.205	7.52721e-05
2	0	0	1	1	2343.21	-0.94647	-0.948014	-0.0692652	1	0.0106372	13	62.5391	6.56644e-05
2	0	0	1	1	2346.54	-0.906461	-0.908052	-0.0627589	1	0.0104185	13	65.8732	5.69884e-05
2	0	0	1	1	2349.87	-0.866453	-0.868048	-0.0569575	1	0.0102205	13	69.2072	4.94418e-05
2	0	0	1	1	2353.21	-0.826445	-0.828084	-0.0509212	1	0.0100424	13	72.5412	4.2167e-05
2	0	0	1	1	2356.54	-0.786435	-0.787945	-0.0450298	1	0.00988331	13	75.8754	3.5481e-05
2	0	0	1	1	2359.88	-0.746427	-0.747748	-0.0391937	1	0.00974285	13	79.2094	2.9307e-05
2	0	0	1	1	2363.21	-0.706418	-0.707946	-0.0339884	1	0.00962061	13	82.5434	2.4062e-05
2	0	0	1	1	2366.54	-0.66641	-0.667921	-0.0289189	1	0.00951632	13	85.8774	1.93155e-05
2	0	0	1	1	2369.88	-0.6264	-0.627976	-0.0236581	1	0.00942974	13	89.2116	1.48567e-05
2	0	0	1	1	2373.21	-0.586392	-0.587904	-0.0180745	1	0.00936066	13	92.5456	1.06261e-05
2	0	0	1	1	2376.55	-0.546384	-0.547917	-0.0130418	1	0.00930885	13	95.8796	7.1458e-06
2	0	0	1	1	2379.88	-0.506375	-0.507961	-0.00829228	1	0.00927413	13	99.2137	4.21215e-06
2	0	0	1	1	2383.21	-0.466365	-0.467881	-0.0032033	1	0.00925635	13	102.548	1.49876e-06
2	1	0	1	1	2386.55	-0.426358	-0.427909	0.0019411	1	0.00925543	13	1.417	-8.30613e-07
2	1	0	1	1	2389.88	-0.38635	-0.388122	0.00740579	1	0.00927143	13	4.751	-2.87435e-06
2	1	0	1	1	2393.11	-0.34764	-0.349201	0.0122092	2	0.00930303	13	7.9768	-4.26346e-06
2	1	0	1	1	2396.44	-0.307632	-0.309192	0.0170191	2	0.00935225	13	11.3108	-5.26217e-06
2	1	0	1	1	2399.78	-0.267624	-0.26921	0.0214815	2	0.00941824	13	14.6448	-5.78304e-06
2	1	0	1	1	2403.11	-0.227614	-0.229137	0.026816	2	0.00950092	13	17.979	-6.14454e-06
2	1	0	1	1	2406.44	-0.187606	-0.189189	0.0319852	2	0.00960007	13	21.313	-6.05125e-06
2	1	0	1	1	2409.78	-0.147597	-0.149297	0.0371777	2	0.00971542	13	24.647	-5.55053e-06
2	1	0	1	1	2413.11	-0.107589	-0.109169	0.0418408	2	0.00984673	13	27.981	-4.56773e-06
2	1	0	1	1	2416.45	-0.0675792	-0.0691394	0.0465047	2	0.00999405	13	31.3152	-3.21531e-06
2	1	0	1	1	2419.78	-0.0275714	-0.0291723	0.0512961	2	0.0101574	13	34.6492	-1.49642e-06
2	1	0	1	1	2423.11	0.0124367	0.0110176	0.0556754	2	0.0103359	13	37.9832	6.13409e-07
2	1	0	1	1	2426.45	0.0524451	0.051022	0.0599535	2	0.0105289	13	41.3172	3.05895e-06
2	1	0	1	1	2429.78	0.0924553	0.0909389	0.0641391	2	0.010736	13	44.6514	5.83274e-06
2	1	0	1	1	2433.12	0.132463	0.131106	0.0678627	2	0.0109566	13	47.9854	8.89722e-06
2	1	0	1	1	2436.45	0.172471	0.17082	0.0714477	2	0.0111899	13	51.3194	1.22047e-05
2	1	0	1	1	2439.79	0.21248	0.210982	0.074868	2	0.011435	13	54.6535	1.57958e-05
2	1	0	1	1	2443.12	0.25249	0.251003	0.0779823	2	0.0116908	13	57.9876	1.95738e-05
2	1	0	1	1	2446.45	0.292498	0.290997	0.0807121	2	0.0119565	13	61.3216	2.3487e-05
2	1	0	1	1	2449.79	0.332505	0.331063	0.0833997	2	0.0122311	13	64.6556	2.76106e-05
2	1	0	1	1	2453.12	0.372516	0.371004	0.0857468	2	0.0125138	13	67.9898	3.18124e-05
2	1	0	1	1	2456.46	0.412524	0.411127	0.0878472	2	0.0128039	13	71.3238	3.61163e-05
2	1	0	1	1	2459.79	0.452532	0.451057	0.0897437	2	0.0131005	13	74.6578	4.04795e-05
2	1	0	1	1	2463.12	0.49254	0.491046	0.0914133	2	0.013403	13	77.9918	4.48882e-05
2	1	0	1	1	2466.48	0.53285	0.531304	0.0931731	2	0.0137134	12	81.351	4.95033e-05
2	1	0	1	1	2469.82	0.572858	0.571367	0.0944954	2	0.014027	12	84.685	5.39915e-05
2	1	0	1	1	2473.15	0.612866	0.611392	0.0957165	2	0.0143445	12	88.019	5.85203e-05
2	1	0	1	1	2476.48	0.652875	0.651441	0.0967882	2	0.0146652	12	91.3531	6.30518e-05
2	1	0	1	1	2479.82	0.692885	0.691413	0.0974324	2	0.0149887	12	94.6872	6.73661e-05
2	1	0	1	1	2483.15	0.732893	0.731431	0.098089	2	0.0153146	12	98.0212	7.17453e-05
2	1	0	1	1	2486.49	0.7729	0.771463	0.098768	2	0.0156428	12	101.355	7.61958e-05
2	1	0	1	1	2489.82	0.812911	0.811451	0.0994228	2	0.015973	12	104.689	8.06767e-05
2	1	0	1	1	2493.16	0.852919	0.851449	0.0999133	2	0.0163054	12	108.023	8.50711e-05
2	1	0	1	1	2496.49	0.892927	0.891446	0.100329	2	0.0166398	12	111.357	8.94381e-05
2	1	0	1	1	2499.82	0.932935	0.931496	0.100756	2	0.0169763	12	114.691	9.3854e-05
2	1	0	1	1	2503.16	0.972945	0.971629	0.101913	2	0.0173149	12	118.026	9.90216e-05
2	1	0	1	1	2506.38	0.988448	0.987041	0.100739	2	0.0176426	12	121.243	9.94331e-05
2	1	0	1	1	2509.71	0.948438	0.947013	0.0957644	2	0.017969	12	124.578	9.06901e-05
2	1	0	1	1	2513.04	0.90843	0.906986	0.0914917	2	0.0182805	12	127.912	8.29817e-05
2	1	0	1	1	2516.38	0.868422	0.867069	0.0878885	2	0.018579	12	131.246	7.62054e-05
2	1	0	1	1	2519.71	0.828414	0.826869	0.0840903	2	0.0188657	12	134.58	6.95317e-05
2	1	0	1	1	2523.05	0.788404	0.786894	0.0809409	2	0.0191414	12	137.914	6.36919e-05
2	1	0	1	1	2526.38	0.748396	0.746919	0.0780861	2	0.0194068	12	141.248	5.8324e-05
2	1	0	1	1	2529.71	0.708388	0.706897	0.0752338	2	0.0196623	12	144.582	5.31825e-05
2	1	0	1	1	2533.05	0.66838	0.666834	0.0723762	2	0.0199082	12	147.916	4.82629e-05
2	1	0	1	1	2536.38	0.628369	0.626981	0.0697232	2	0.0201449	12	151.25	4.37151e-05
2	1	0	1	1	2539.72	0.588361	0.586795	0.0665455	2	0.0203724	12	154.584	3.90485e-05
2	1	0	1	1	2543.05	0.548354	0.546814	0.0642147	2	0.0205911	12	157.918	3.51135e-05
2	1	0	1	1	2546.38	0.508344	0.50683	0.061717	2	0.0208008	12	161.252	3.128e-05
2	1	0	1	1	2549.72	0.468335	0.466821	0.0591023	2	0.0210019	12	164.586	2.75902e-05
2	1	0	1	1	2553.05	0.428327	0.426866	0.0565407	2	0.0211942	12	167.92	2.41353e-05
2	1	0	1	1	2556.39	0.388319	0.38675	0.054086	2	0.0213779	12	171.254	2.09178e-05
2	1	0	1	1	2559.72	0.348309	0.346879	0.0516379	2	0.021553	12	174.588	1.79121e-05
2	1	0	1	1	2563.05	0.308301	0.306928	0.0491497	2	0.0217194	12	177.922	1.50854e-05
2	1	0	1	1	2566.39	0.268293	0.266931	0.0462297	2	0.021877	12	181.256	1.23401e-05
2	1	0	1	1	2569.76	0.227884	0.226338	0.0429672	2	0.0220263	13	184.624	9.7251e-06
2	1	0	1	1	2573.09	0.187876	0.186429	0.0402167	2	0.0221646	13	187.958	7.49757e-06
2	1	0	1	1	2576.42	0.147866	0.14617	0.0371859	2	0.0222937	13	191.292	5.43547e-06
2	1	0	1	1	2579.76	0.107858	0.106385	0.0344024	2	0.0224137	13	194.626	3.65988e-06
2	1	0	1	1	2583.09	0.0678497	0.0663662	0.0316242	2	0.0225241	13	197.96	2.09878e-06
2	1	0	1	1	2586.43	0.0278414	0.0264038	0.0288342	2	0.0226247	13	201.294	7.6133e-07
2	1	0	1	1	2589.76	-0.0121689	-0.0137541	0.0257707	2	0.0227147	13	204.628	-3.54452e-07
2	1	0	1	1	2593.09	-0.0521767	-0.0536881	0.0222397	2	0.0227934	13	207.962	-1.19401e-06
2	1	0	1	1	2596.43	-0.0921845	-0.0937316	0.018283	2	0.0228595	13	211.296	-1.7137e-06
2	1	0	1	1	2599.76	-0.132194	-0.133921	0.014061	2	0.0229124	13	214.63	-1.88306e-06
2	1	0	1	1	2603.1	-0.172203	-0.173788	0.0104227	2	0.022953	13	217.964	-1.81134e-06
2	1	0	1	1	2606.43	-0.212211	-0.21375	0.00754651	2	0.022983	13	221.298	-1.61306e-06
2	1	0	1	1	2609.76	-0.252219	-0.253813	0.00438093	2	0.0230028	13	224.632	-1.11194e-06
2	1	0	1	1	2613.1	-0.292229	-0.293801	0.00114076	2	0.0230113	13	227.967	-3.35155e-07
2	1	0	1	1	2616.43	-0.332238	-0.333773	-0.00230022	2	0.0230078	13	2.584	7.67752e-07
2	1	0	1	1	2619.77	-0.372246	-0.373826	-0.00553216	2	0.0229928	13	5.918	2.06806e-06
2	1	0	1	1	2623.1	-0.412254	-0.413794	-0.00897328	2	0.0229666	13	9.252	3.71309e-06
2	0	0	1	1	2626.43	-0.452264	-0.453756	-0.0127073	2	0.022929	13	12.5862	5.76604e-06
2	0	0	1	1	2629.77	-0.492272	-0.493713	-0.0164608	2	0.0228794	13	15.9202	8.12692e-06
2	0	0	1	1	2633.1	-0.53228	-0.533925	-0.0208147	2	0.0228171	13	19.2542	1.11135e-05
2	0	0	1	1	2636.44	-0.572289	-0.573835	-0.0249262	2	0.0227413	13	22.5883	1.43035e-05
2	0	0	1	1	2639.77	-0.612298	-0.613866	-0.0290322	2	0.0226514	13	25.9224	1.78218e-05
2	0	0	1	1	2643.1	-0.652306	-0.653832	-0.033573	2	0.0225471	13	29.2564	2.19511e-05
2	0	0	1	1	2646.44	-0.692314	-0.693832	-0.0378222	2	0.0224277	13	32.5904	2.62423e-05
2	0	0	1	1	2649.77	-0.732323	-0.733947	-0.0423685	2	0.0222929	13	35.9245	3.10962e-05
2	0	0	1	1	2653.11	-0.772333	-0.773799	-0.0472421	2	0.0221424	13	39.2586	3.65559e-05
2	0	0	1	1	2656.44	-0.812341	-0.813889	-0.0525653	2	0.0219756	13	42.5926	4.27823e-05
2	0	0	1	1	2659.77	-0.852349	-0.8539	-0.0575719	2	0.0217922	13	45.9266	4.91606e-05
2	0	0	1	1	2663.11	-0.892359	-0.893973	-0.0628243	2	0.0215911	13	49.2608	5.61632e-05
2	0	0	1	1	2666.44	-0.932367	-0.934007	-0.0685413	2	0.0213711	13	52.5948	6.4018e-05
2	0	0	1	1	2669.78	-0.972376	-0.97396	-0.0748918	2	0.0211305	13	55.9288	7.29416e-05
2	0	0	1	0	2672.96	-0.989479	-0.991184	-0.0772958	2	0.020883	13	59.1134	7.66143e-05
2	0	0	1	0	2676.3	-0.949471	-0.951047	-0.0702517	2	0.0206392	13	62.4474	6.68127e-05
2	0	0	1	0	2679.63	-0.909462	-0.911027	-0.0633926	2	0.0204182	13	65.7815	5.77524e-05
2	0	0	1	0	2682.96	-0.869453	-0.871028	-0.0569974	2	0.0202185	13	69.1156	4.96463e-05
2	0	0	1	0	2686.3	-0.829445	-0.831022	-0.0509244	2	0.0200388	13	72.4496	4.23193e-05
2	0	0	1	0	2689.63	-0.789437	-0.790988	-0.0453536	2	0.0198783	13	75.7836	3.58742e-05
2	0	0	1	0	2692.97	-0.749427	-0.751014	-0.0398133	2	0.0197366	13	79.1178	2.99004e-05
2	0	0	1	0	2696.3	-0.709419	-0.710937	-0.0346722	2	0.0196131	13	82.4518	2.46497e-05
2	0	0	1	0	2699.63	-0.66941	-0.670975	-0.0293691	2	0.0195077	13	85.7858	1.97059e-05
2	0	0	1	0	2702.97	-0.629402	-0.631091	-0.0240199	2	0.01942	13	89.1198	1.51587e-05
2	0	0	1	0	2706.3	-0.589392	-0.590878	-0.0188548	2	0.0193498	13	92.454	1.11409e-05
2	0	0	1	0	2709.64	-0.549384	-0.550907	-0.0135489	2	0.0192969	13	95.788	7.46418e-06
2	0	0	1	0	2712.97	-0.509376	-0.5109	-0.00837948	2	0.0192611	13	99.122	4.28108e-06
2	0	0	1	0	2716.3	-0.469367	-0.470931	-0.00312126	2	0.0192423	13	102.456	1.4699e-06
2	1	0	1	0	2719.64	-0.429357	-0.430941	0.00202607	2	0.0192404	13	1.167	-8.73115e-07
2	1	0	1	0	2722.97	-0.38935	-0.390991	0.0070721	2	0.0192555	13	4.501	-2.76512e-06
2	0	0	1	0	2726.2	-0.350641	-0.352115	0.0119406	3	0.0192863	13	7.7267	-4.20445e-06
2	1	0	1	0	2729.53	-0.310632	-0.31223	0.017121	3	0.0193346	13	11.0608	-5.3457e-06
2	1	0	1	0	2732.87	-0.270624	-0.272153	0.0220162	3	0.0193997	13	14.3948	-5.99178e-06
2	1	0	1	0	2736.2	-0.230616	-0.23221	0.026797	3	0.0194814	13	17.7288	-6.22251e-06
2	1	0	1	0	2739.53	-0.190606	-0.192125	0.0312626	3	0.0195794	13	21.063	-6.00632e-06
2	1	0	1	0	2742.87	-0.150598	-0.152137	0.0358427	3	0.0196936	13	24.397	-5.453e-06
2	1	0	1	0	2746.2	-0.110589	-0.112111	0.0408935	3	0.0198235	13	27.731	-4.5846e-06
2	1	0	1	0	2749.54	-0.0705815	-0.0721296	0.04608	3	0.0199693	13	31.065	-3.32373e-06
2	1	0	1	0	2752.87	-0.0305712	-0.0321711	0.0508096	3	0.020131	13	34.3992	-1.6346e-06
2	1	0	1	0	2756.2	0.00943661	0.0078973	0.0550458	3	0.0203078	13	37.7332	4.34713e-07
2	1	0	1	0	2759.54	0.0494447	0.0478872	0.0587462	3	0.0204989	13	41.0672	2.81319e-06
2	1	0	1	0	2762.87	0.0894531	0.0879553	0.0632486	3	0.0207038	13	44.4012	5.56305e-06
2	1	0	1	0	2766.21	0.129463	0.127961	0.0673552	3	0.020922	13	47.7354	8.61883e-06
2	1	0	1	0	2769.54	0.169471	0.167914	0.0709591	3	0.0211528	13	51.0694	1.1915e-05
2	1	0	1	0	2772.87	0.209479	0.208053	0.0740871	3	0.021395	13	54.4034	1.5414e-05
2	1	0	1	0	2776.21	0.249488	0.247973	0.076925	3	0.0216478	13	57.7375	1.90753e-05
2	1	0	1	0	2779.54	0.289498	0.287985	0.0798955	3	0.0219102	13	61.0716	2.30087e-05
2	1	0	1	0	2782.88	0.329506	0.328064	0.0825849	3	0.0221812	13	64.4056	2.70931e-05
2	1	0	1	0	2786.21	0.369513	0.368007	0.0847971	3	0.0224602	13	67.7396	3.12059e-05
2	1	0	1	0	2789.55	0.409524	0.408043	0.0867171	3	0.0227463	13	71.0738	3.53843e-05
2	1	0	1	0	2792.88	0.449532	0.448093	0.0886376	3	0.0230389	13	74.4078	3.97179e-05
2	1	0	1	0	2796.21	0.48954	0.488017	0.0901387	3	0.0233375	13	77.7418	4.39892e-05
2	1	0	1	0	2799.55	0.529548	0.528065	0.0918141	3	0.0236416	13	81.0758	4.84838e-05
2	1	0	1	0	2802.91	0.569858	0.56834	0.0938658	3	0.0239539	12	84.435	5.33477e-05
2	1	0	1	0	2806.24	0.609866	0.608311	0.0950204	3	0.024269	12	87.769	5.78019e-05
2	1	0	1	0	2809.57	0.649874	0.64843	0.0962729	3	0.0245882	12	91.103	6.24262e-05
2	1	0	1	0	2812.91	0.689883	0.688504	0.0973817	3	0.0249112	12	94.4371	6.70476e-05
2	1	0	1	0	2816.24	0.729893	0.728311	0.0979889	3	0.0252375	12	97.7712	7.13664e-05
2	1	0	1	0	2819.58	0.769901	0.768363	0.0987903	3	0.0255668	12	101.105	7.59068e-05
2	1	0	1	0	2822.91	0.809908	0.808433	0.0998729	3	0.0258991	12	104.439	8.07405e-05
2	1	0	1	0	2826.24	0.849919	0.848481	0.100815	3	0.0262342	12	107.773	8.55399e-05
2	1	0	1	0	2829.58	0.889927	0.888447	0.10141	3	0.0265718	12	111.107	9.00977e-05
2	1	0	1	0	2832.91	0.929935	0.92854	0.102216	3	0.026912	12	114.441	9.49114e-05
2	1	0	1	0	2836.25	0.969943	0.968534	0.103244	3	0.0272549	12	117.775	9.99954e-05
2	1	0	1	0	2839.46	0.991448	0.989988	0.10258	3	0.0275877	12	120.993	0.000101553
2	1	0	1	0	2842.8	0.951441	0.949872	0.0974065	3	0.0279206	12	124.327	9.25237e-05
2	1	0	1	0	2846.13	0.91143	0.910025	0.0932863	3	0.0282387	12	127.662	8.48928e-05
2	1	0	1	0	2849.47	0.871422	0.869962	0.0895353	3	0.0285437	12	130.996	7.78923e-05
2	1	0	1	0	2852.8	0.831414	0.829946	0.0862915	3	0.0288371	12	134.33	7.16173e-05
2	1	0	1	0	2856.14	0.791406	0.789936	0.0831793	3	0.0291194	12	137.664	6.57063e-05
2	1	0	1	0	2859.47	0.751396	0.749877	0.0801459	3	0.0293914	12	140.998	6.00996e-05
2	1	0	1	0	2862.8	0.711388	0.709825	0.0768659	3	0.0296534	12	144.332	5.45614e-05
2	1	0	1	0	2866.14	0.67138	0.669785	0.0739995	3	0.0299058	12	147.666	4.95637e-05
2	1	0	1	0	2869.47	0.631372	0.629858	0.0715632	3	0.0301487	12	151	4.50747e-05
2	1	0	1	0	2872.81	0.591361	0.589879	0.0688984	3	0.0303824	12	154.334	4.06417e-05
2	1	0	1	0	2876.14	0.551353	0.549907	0.0662251	3	0.0306069	12	157.668	3.64176e-05
2	1	0	1	0	2879.47	0.511346	0.509858	0.0632881	3	0.0308223	12	161.002	3.2268e-05
2	1	0	1	0	2882.81	0.471336	0.469819	0.0605123	3	0.0310288	12	164.336	2.84298e-05
2	1	0	1	0	2886.14	0.431327	0.42984	0.0580336	3	0.0312263	12	167.67	2.49452e-05
2	1	0	1	0	2889.48	0.391319	0.389766	0.0553957	3	0.0314149	12	171.004	2.15913e-05
2	1	0	1	0	2892.81	0.351311	0.349867	0.0526238	3	0.0315945	12	174.338	1.84113e-05
2	1	0	1	0	2896.14	0.311301	0.309786	0.0498341	3	0.0317652	12	177.672	1.54379e-05
2	1	0	1	0	2899.48	0.271293	0.269844	0.0472814	3	0.0319269	12	181.006	1.27586e-05
2	1	0	1	0	2902.84	0.230985	0.229441	0.0441742	3	0.0320798	13	184.365	1.01354e-05
2	1	0	1	0	2906.17	0.190977	0.189546	0.0412147	3	0.0322215	13	187.699	7.81207e-06
2	1	0	1	0	2909.51	0.150966	0.149425	0.0380679	3	0.0323539	13	191.034	5.68831e-06
2	1	0	1	0	2912.84	0.110959	0.109463	0.0355788	3	0.0324767	13	194.368	3.89455e-06
2	1	0	1	0	2916.17	0.0709507	0.0692939	0.0327602	3	0.0325898	13	197.702	2.27008e-06
2	1	0	1	0	2919.51	0.0309412	0.0294381	0.0295027	3	0.0326929	13	201.036	8.68506e-07
2	1	0	1	0	2922.84	-0.00906818	-0.010659	0.0259549	3	0.0327852	13	204.37	-2.76652e-07
2	1	0	1	0	2926.18	-0.049076	-0.0506133	0.0224204	3	0.032866	13	207.704	-1.13477e-06
2	1	0	1	0	2929.51	-0.0890839	-0.090625	0.0189649	3	0.0329343	13	211.038	-1.7187e-06
2	1	0	1	0	2932.84	-0.129094	-0.130667	0.0152458	3	0.0329895	13	214.372	-1.99212e-06
2	1	0	1	0	2936.18	-0.169102	-0.170788	0.0113703	3	0.0330324	13	217.706	-1.9419e-06
2	1	0	1	0	2939.51	-0.209111	-0.210712	0.0078644	3	0.0330644	13	221.04	-1.65712e-06
2	1	0	1	0	2942.85	-0.249118	-0.250694	0.00511118	3	0.0330857	13	224.374	-1.28134e-06
2	1	0	1	0	2946.18	-0.289129	-0.290732	0.00157521	3	0.0330955	13	227.708	-4.57964e-07
2	0	0	1	0	2949.51	-0.329137	-0.330625	-0.00191053	3	0.0330934	13	2.1672	6.3167e-07
2	0	0	1	0	2952.85	-0.369145	-0.37078	-0.00591609	3	0.0330798	13	5.5012	2.19357e-06
2	0	0	1	0	2956.18	-0.409153	-0.410724	-0.00904313	3	0.033055	13	8.8352	3.71423e-06
2	0	0	1	0	2959.52	-0.449163	-0.450715	-0.0121717	3	0.0330188	13	12.1694	5.48596e-06
2	0	0	1	0	2962.85	-0.489171	-0.490591	-0.0156953	3	0.0329708	13	15.5034	7.69999e-06
2	0	0	1	0	2966.18	-0.529179	-0.530716	-0.0198746	3	0.03291	13	18.8374	1.05478e-05
2	0	0	1	0	2969.52	-0.569188	-0.570765	-0.0244545	3	0.032836	13	22.1715	1.39578e-05
2	0	0	1	0	2972.85	-0.609198	-0.610743	-0.0281153	3	0.0327479	13	25.5056	1.71712e-05
2	0	0	1	0	2976.19	-0.649206	-0.650701	-0.0326845	3	0.0326455	13	28.8396	2.12678e-05
2	0	0	1	0	2979.52	-0.689214	-0.690755	-0.0376028	3	0.0325281	13	32.1736	2.59743e-05
2	0	0	1	0	2982.85	-0.729224	-0.73078	-0.0420139	3	0.0323954	13	35.5078	3.07029e-05
2	0	0	1	0	2986.19	-0.769232	-0.770772	-0.046517	3	0.0322471	13	38.8418	3.5854e-05
2	0	0	1	0	2989.52	-0.80924	-0.810759	-0.0514149	3	0.0320826	13	42.1758	4.16851e-05
2	0	0	1	0	2992.86	-0.849248	-0.850861	-0.05682	3	0.0319014	13	45.5098	4.83459e-05
2	0	0	1	0	2996.19	-0.889258	-0.890855	-0.0624834	3	0.0317025	13	48.844	5.56637e-05
2	0	0	1	0	2999.52	-0.929266	-0.930853	-0.0680073	3	0.0314846	13	52.178	6.33048e-05
2	0	0	1	0	3002.86	-0.969274	-0.970844	-0.0744672	3	0.0312457	13	55.512	7.2296e-05
2	0	0	1	1	3006.05	-0.992479	-0.993931	-0.0775328	3	0.0309983	13	58.705	7.70622e-05
2	0	0	1	1	3009.39	-0.952471	-0.954053	-0.0704161	3	0.0307531	13	62.039	6.71807e-05
2	0	0	1	1	3012.72	-0.912463	-0.914075	-0.0635865	3	0.0305312	13	65.373	5.81228e-05
2	0	0	1	1	3016.05	-0.872454	-0.874016	-0.0570571	3	0.0303307	13	68.7071	4.98688e-05
2	0	0	1	1	3019.39	-0.832445	-0.83404	-0.0512576	3	0.0301503	13	72.0412	4.27509e-05
2	0	0	1	1	3022.72	-0.792437	-0.793963	-0.0456906	3	0.0299891	13	75.3752	3.62766e-05
2	0	0	1	1	3026.06	-0.752429	-0.753993	-0.0407017	3	0.0298465	13	78.7092	3.06888e-05
2	0	0	1	1	3029.39	-0.712418	-0.714011	-0.0348252	3	0.0297222	13	82.0434	2.48656e-05
2	0	0	1	1	3032.72	-0.67241	-0.674105	-0.0292464	3	0.0296158	13	85.3774	1.97152e-05
2	0	0	1	1	3036.06	-0.632402	-0.633995	-0.0239939	3	0.0295272	13	88.7114	1.5212e-05
2	0	0	1	1	3039.39	-0.592394	-0.593878	-0.0189754	3	0.029456	13	92.0454	1.12691e-05
2	0	0	1	1	3042.73	-0.552384	-0.554001	-0.0141193	3	0.029402	13	95.3796	7.82208e-06
2	0	0	1	1	3046.06	-0.512376	-0.513954	-0.00890129	3	0.0293652	13	98.7136	4.57485e-06
2	0	0	1	1	3049.39	-0.472368	-0.473967	-0.00346119	3	0.0293452	13	102.048	1.64049e-06
2	1	0	1	1	3052.73	-0.432359	-0.433888	0.00158987	3	0.0293422	13	1.0003	-6.89826e-07
2	1	0	1	1	3056.06	-0.392349	-0.393926	0.00672549	3	0.0293561	13	4.3344	-2.64934e-06
2	1	0	1	1	3059.29	-0.353643	-0.355044	0.0114985	4	0.0293856	13	7.56	-4.08246e-06
2	1	0	1	1	3062.62	-0.313633	-0.31521	0.0163514	4	0.0294327	13	10.8941	-5.15412e-06
2	1	0	1	1	3065.96	-0.273624	-0.275228	0.0207098	4	0.0294964	13	14.2282	-5.6999e-06
2	1	0	1	1	3069.29	-0.233616	-0.235173	0.0258033	4	0.0295765	13	17.5622	-6.06825e-06
2	1	0	1	1	3072.62	-0.193608	-0.195176	0.0308001	4	0.0296728	13	20.8962	-6.01146e-06
2	1	0	1	1	3075.96	-0.153598	-0.155188	0.0358551	4	0.0297849	13	24.2304	-5.56427e-06
2	1	0	1	1	3079.29	-0.113589	-0.115262	0.0406634	4	0.0299128	13	27.5644	-4.68696e-06
2	1	0	1	1	3082.63	-0.0735813	-0.0751754	0.0453843	4	0.0300564	13	30.8984	-3.41178e-06
2	1	0	1	1	3085.96	-0.0335735	-0.0351853	0.0500058	4	0.0302158	13	34.2324	-1.75947e-06
2	1	0	1	1	3089.29	0.00643676	0.00487961	0.0544481	4	0.0303901	13	37.5666	2.65686e-07
2	1	0	1	1	3092.63	0.0464446	0.0449908	0.0586419	4	0.0305787	13	40.9006	2.63835e-06
2	1	0	1	1	3095.96	0.0864527	0.0849931	0.0626789	4	0.030781	13	44.2346	5.32727e-06
2	1	0	1	1	3099.3	0.126461	0.124923	0.066473	4	0.0309966	13	47.5686	8.30397e-06
2	1	0	1	1	3102.63	0.166471	0.164982	0.0700466	4	0.0312246	13	50.9028	1.15564e-05
2	1	0	1	1	3105.96	0.206479	0.205005	0.0733728	4	0.031464	13	54.2368	1.50418e-05
2	1	0	1	1	3109.3	0.246487	0.244953	0.0763205	4	0.0317138	13	57.5708	1.86949e-05
2	1	0	1	1	3112.63	0.286496	0.284937	0.0790773	4	0.0319731	13	60.9049	2.25321e-05
2	1	0	1	1	3115.97	0.326506	0.325028	0.081367	4	0.0322409	13	64.239	2.64466e-05
2	1	0	1	1	3119.3	0.366514	0.365125	0.0836659	4	0.0325166	13	67.573	3.05485e-05
2	1	0	1	1	3122.63	0.406521	0.405186	0.0857101	4	0.0327993	13	70.907	3.47285e-05
2	1	0	1	1	3125.97	0.446532	0.445046	0.0875597	4	0.0330884	13	74.2412	3.89681e-05
2	1	0	1	1	3129.3	0.48654	0.484998	0.0892115	4	0.0333835	13	77.5752	4.32674e-05
2	1	0	1	1	3132.64	0.526548	0.525057	0.0909328	4	0.0336842	13	80.9092	4.77449e-05
2	1	0	1	1	3135.97	0.566556	0.565059	0.0923803	4	0.0339899	13	84.2432	5.22003e-05
2	1	0	1	1	3139.34	0.606965	0.605535	0.0943323	4	0.0343047	12	87.6106	5.71215e-05
2	1	0	1	1	3142.67	0.646975	0.645497	0.0956268	4	0.0346214	12	90.9448	6.17268e-05
2	1	0	1	1	3146.01	0.686983	0.685497	0.0969161	4	0.0349423	12	94.2788	6.64357e-05
2	1	0	1	1	3149.34	0.726991	0.725409	0.0979684	4	0.0352672	12	97.6128	7.10671e-05
2	1	0	1	1	3152.67	0.766999	0.765402	0.0989643	4	0.0355958	12	100.947	7.57475e-05
2	1	0	1	1	3156.01	0.807009	0.805482	0.0999446	4	0.0359277	12	104.281	8.05035e-05
2	1	0	1	1	3159.34	0.847017	0.845595	0.10098	4	0.0362629	12	107.615	8.53878e-05
2	1	0	1	1	3162.68	0.887025	0.88557	0.101879	4	0.0366011	12	110.949	9.02206e-05
2	1	0	1	1	3166.01	0.927034	0.925622	0.102922	4	0.0369422	12	114.283	9.52667e-05
2	1	0	1	1	3169.35	0.967044	0.965608	0.103393	4	0.0372863	12	117.617	9.98375e-05
2	1	0	1	1	3172.55	0.994448	0.99298	0.1034	4	0.0376199	12	120.827	0.000102674
2	1	0	1	1	3175.89	0.95444	0.953024	0.0983826	4	0.0379557	12	124.161	9.3761e-05
2	1	0	1	1	3179.22	0.914433	0.912993	0.0941473	4	0.0382764	12	127.495	8.59558e-05
2	1	0	1	1	3182.56	0.874422	0.872934	0.0903922	4	0.0385839	12	130.829	7.89064e-05
2	1	0	1	1	3185.89	0.834414	0.832967	0.0869394	4	0.0388795	12	134.163	7.24176e-05
2	1	0	1	1	3189.22	0.794406	0.792957	0.0838593	4	0.039164	12	137.497	6.64969e-05
2	1	0	1	1	3192.56	0.754398	0.752905	0.0807361	4	0.0394381	12	140.831	6.07866e-05
2	1	0	1	1	3195.89	0.714388	0.712849	0.0773814	4	0.0397021	12	144.165	5.51612e-05
2	1	0	1	1	3199.23	0.67438	0.672962	0.0748829	4	0.0399564	12	147.499	5.03934e-05
2	1	0	1	1	3202.56	0.634372	0.632809	0.0719333	4	0.0402011	12	150.833	4.552e-05
2	1	0	1	1	3205.9	0.594364	0.592874	0.0691659	4	0.0404364	12	154.167	4.10066e-05
2	1	0	1	1	3209.23	0.554353	0.552843	0.0663307	4	0.0406626	12	157.501	3.66705e-05
2	1	0	1	1	3212.56	0.514346	0.512887	0.0637349	4	0.0408795	12	160.835	3.26888e-05
2	1	0	1	1	3215.9	0.474338	0.472847	0.0610611	4	0.0410874	12	164.169	2.88725e-05
2	1	0	1	1	3219.23	0.434328	0.432874	0.0583991	4	0.0412862	12	167.503	2.52795e-05
2	1	0	1	1	3222.57	0.394319	0.392872	0.0557681	4	0.0414761	12	170.838	2.19097e-05
2	1	0	1	1	3225.9	0.354311	0.352801	0.0531006	4	0.041657	12	174.172	1.87339e-05
2	1	0	1	1	3229.23	0.314303	0.312739	0.0503389	4	0.0418288	12	177.506	1.57429e-05
2	1	0	1	1	3232.57	0.274293	0.272771	0.0476294	4	0.0419915	12	180.84	1.29919e-05
2	1	0	1	1	3235.94	0.233884	0.232461	0.0442904	4	0.0421457	13	184.207	1.02958e-05
2	1	0	1	1	3239.27	0.193876	0.192399	0.0415437	4	0.0422884	13	187.541	7.99298e-06
2	1	0	1	1	3242.6	0.153868	0.152344	0.0387138	4	0.0424216	13	190.875	5.89783e-06
2	1	0	1	1	3245.94	0.11386	0.112478	0.0357947	4	0.0425453	13	194.209	4.02613e-06
2	1	0	1	1	3249.27	0.0738497	0.0723214	0.0328531	4	0.0426592	13	197.543	2.37598e-06
2	1	0	1	1	3252.61	0.0338419	0.0323316	0.0297801	4	0.042763	13	200.877	9.62838e-07
2	1	0	1	1	3255.94	-0.00616622	-0.00769403	0.0266759	4	0.0428561	13	204.211	-2.05245e-07
2	1	0	1	1	3259.27	-0.0461746	-0.0477207	0.023171	4	0.0429378	13	207.545	-1.10574e-06
2	1	0	1	1	3262.61	-0.0861848	-0.0877754	0.0193052	4	0.0430069	13	210.88	-1.69452e-06
2	1	0	1	1	3265.94	-0.126193	-0.127795	0.0153	4	0.0430632	13	214.214	-1.95527e-06
2	1	0	1	1	3269.28	-0.166201	-0.167667	0.0121772	4	0.0431072	13	217.548	-2.04171e-06
2	1	0	1	1	3272.61	-0.20621	-0.207555	0.0091938	4	0.0431402	13	220.882	-1.90822e-06
2	1	0	1	1	3275.94	-0.246219	-0.247606	0.00575281	4	0.0431626	13	224.216	-1.42443e-06
2	1	0	1	1	3279.28	-0.286227	-0.287792	0.00192414	4	0.0431735	13	227.55	-5.53753e-07
2	0	0	1	1	3282.61	-0.326235	-0.327819	-0.00156473	4	0.0431728	13	1.8336	5.12948e-07
2	0	0	1	1	3285.95	-0.366245	-0.367855	-0.0048346	4	0.0431607	13	5.1678	1.77844e-06
2	0	0	1	1	3289.28	-0.406253	-0.407798	-0.00819163	4	0.0431376	13	8.5018	3.34053e-06
2	0	0	1	1	3292.61	-0.446262	-0.447833	-0.0117242	4	0.0431033	13	11.8358	5.2505e-06
2	0	0	1	1	3295.95	-0.48627	-0.487822	-0.0155118	4	0.0430573	13	15.1698	7.567e-06
2	0	0	1	1	3299.28	-0.52628	-0.527831	-0.0192064	4	0.0429989	13	18.504	1.01378e-05
2	0	0	1	1	3302.62	-0.566288	-0.567816	-0.0230269	4	0.0429275	13	21.838	1.3075e-05
2	0	0	1	1	3305.95	-0.606296	-0.607868	-0.0271751	4	0.0428425	13	25.172	1.65189e-05
2	0	0	1	1	3309.28	-0.646304	-0.647903	-0.0316041	4	0.0427433	13	28.506	2.04764e-05
2	0	0	1	1	3312.62	-0.686315	-0.687884	-0.0359315	4	0.0426296	13	31.8402	2.47167e-05
2	0	0	1	1	3315.95	-0.726322	-0.728095	-0.0404382	4	0.0425009	13	35.1742	2.94428e-05
2	0	0	1	1	3319.29	-0.76633	-0.768107	-0.0450894	4	0.0423569	13	38.5082	3.46335e-05
2	0	0	1	1	3322.62	-0.806339	-0.807945	-0.0499587	4	0.042197	13	41.8423	4.03639e-05
2	0	0	1	1	3325.95	-0.846349	-0.848127	-0.054923	4	0.0420208	13	45.1764	4.65817e-05
2	0	0	1	1	3329.29	-0.886357	-0.888131	-0.0602895	4	0.0418274	13	48.5104	5.3545e-05
2	0	0	1	1	3332.62	-0.926365	-0.928196	-0.0662466	4	0.041615	13	51.8444	6.14898e-05
2	0	0	1	1	3335.96	-0.966375	-0.96805	-0.0725951	4	0.0413819	13	55.1786	7.02757e-05
2	0	0	1	0	3339.14	-0.99548	-0.997095	-0.0766866	4	0.0411402	13	58.3631	7.64639e-05
2	0	0	1	0	3342.48	-0.955471	-0.957067	-0.0691182	4	0.0408974	13	61.6972	6.61507e-05
2	0	0	1	0	3345.81	-0.915463	-0.917051	-0.0625244	4	0.040678	13	65.0312	5.7338e-05
2	0	0	1	0	3349.14	-0.875455	-0.877031	-0.0565435	4	0.0404798	13	68.3652	4.95904e-05
2	0	0	1	0	3352.48	-0.835446	-0.837039	-0.0507468	4	0.0403015	13	71.6993	4.24771e-05
2	0	0	1	0	3355.81	-0.795437	-0.796974	-0.0450396	4	0.0401421	13	75.0334	3.58954e-05
2	0	0	1	0	3359.15	-0.755429	-0.756995	-0.0398356	4	0.0400011	13	78.3674	3.01554e-05
2	0	0	1	0	3362.48	-0.715421	-0.716979	-0.0346827	4	0.0398779	13	81.7014	2.48668e-05
2	0	0	1	0	3365.81	-0.675411	-0.676968	-0.0295096	4	0.0397724	13	85.0356	1.9977e-05
2	0	0	1	0	3369.15	-0.635402	-0.637001	-0.0243036	4	0.0396842	13	88.3696	1.54814e-05
2	0	0	1	0	3372.48	-0.595394	-0.596968	-0.019112	4	0.0396132	13	91.7036	1.14093e-05
2	0	0	1	0	3375.82	-0.555386	-0.557055	-0.0140451	4	0.0395592	13	95.0376	7.82391e-06
2	0	0	1	0	3379.15	-0.515376	-0.516809	-0.0087147	4	0.039522	13	98.3718	4.50383e-06
2	0	0	1	0	3382.48	-0.475368	-0.476956	-0.00379109	4	0.0395014	13	101.706	1.80818e-06
2	0	0	1	0	3385.82	-0.43536	-0.436901	0.00122768	4	0.0394974	13	0.7502	-5.36376e-07
2	0	0	1	0	3389.15	-0.395351	-0.396877	0.00635478	4	0.0395102	13	4.0843	-2.52207e-06
2	1	0	1	0	3392.38	-0.356642	-0.358216	0.0111606	5	0.0395383	13	7.31	-3.9979e-06
2	1	0	1	0	3395.71	-0.316635	-0.318178	0.0160282	5	0.0395836	13	10.644	-5.09982e-06
2	1	0	1	0	3399.05	-0.276625	-0.278146	0.0208897	5	0.0396451	13	13.9781	-5.81039e-06
2	1	0	1	0	3402.38	-0.236616	-0.238162	0.0255457	5	0.0397227	13	17.3122	-6.08403e-06
2	1	0	1	0	3405.71	-0.196608	-0.198174	0.030191	5	0.039816	13	20.6462	-5.98307e-06
2	1	0	1	0	3409.05	-0.1566	-0.15819	0.0345894	5	0.0399248	13	23.9802	-5.47169e-06
2	1	0	1	0	3412.38	-0.11659	-0.118132	0.039074	5	0.040049	13	27.3144	-4.61588e-06
2	1	0	1	0	3415.72	-0.0765814	-0.0781247	0.0438803	5	0.0401886	13	30.6484	-3.42813e-06
2	1	0	1	0	3419.05	-0.0365733	-0.0381397	0.0483725	5	0.0403437	13	33.9824	-1.84491e-06
2	1	0	1	0	3422.38	0.00343452	0.00194654	0.0527047	5	0.0405134	13	37.3164	1.02592e-07
2	1	0	1	0	3425.72	0.0434447	0.0419509	0.0569307	5	0.0406971	13	40.6506	2.3883e-06
2	1	0	1	0	3429.05	0.0834526	0.0819547	0.0610494	5	0.0408942	13	43.9846	5.00329e-06
2	1	0	1	0	3432.39	0.123461	0.121927	0.0649284	5	0.0411044	13	47.3186	7.9165e-06
2	1	0	1	0	3435.72	0.163469	0.162033	0.0685275	5	0.0413268	13	50.6526	1.11037e-05
2	1	0	1	0	3439.05	0.203479	0.201963	0.071614	5	0.0415605	13	53.9868	1.44634e-05
2	1	0	1	0	3442.39	0.243487	0.241995	0.0745344	5	0.0418044	13	57.3208	1.80369e-05
2	1	0	1	0	3445.72	0.283495	0.281988	0.0772111	5	0.0420576	13	60.6548	2.17726e-05
2	1	0	1	0	3449.06	0.323504	0.321988	0.079583	5	0.0423192	13	63.9889	2.56248e-05
2	1	0	1	0	3452.39	0.363514	0.36195	0.0817703	5	0.0425885	13	67.323	2.95968e-05
2	1	0	1	0	3455.72	0.403522	0.401999	0.0837534	5	0.0428647	13	70.657	3.36688e-05
2	1	0	1	0	3459.06	0.443529	0.442009	0.0856726	5	0.0431473	13	73.991	3.7868e-05
2	1	0	1	0	3462.39	0.48354	0.482014	0.0872923	5	0.0434356	13	77.3252	4.20761e-05
2	1	0	1	0	3465.73	0.523548	0.522016	0.0887614	5	0.0437293	13	80.6592	4.63349e-05
2	1	0	1	0	3469.06	0.563556	0.562048	0.0902558	5	0.0440279	13	83.9932	5.07281e-05
2	1	0	1	0	3472.39	0.603564	0.602055	0.0915304	5	0.0443311	13	87.3272	5.51063e-05
2	1	0	1	0	3475.73	0.643574	0.642029	0.0928403	5	0.0446387	13	90.6614	5.96061e-05
2	1	0	1	0	3479.1	0.683983	0.682324	0.0944258	5	0.0449547	12	94.0288	6.4429e-05
2	1	0	1	0	3482.43	0.723991	0.722488	0.0958365	5	0.0452723	12	97.3628	6.92407e-05
2	1	0	1	0	3485.76	0.763999	0.76249	0.0970294	5	0.0455939	12	100.697	7.39839e-05
2	1	0	1	0	3489.1	0.804007	0.802628	0.0983134	5	0.0459195	12	104.031	7.89091e-05
2	1	0	1	0	3492.43	0.844018	0.842566	0.099155	5	0.0462489	12	107.365	8.35447e-05
2	1	0	1	0	3495.77	0.884025	0.882533	0.10018	5	0.0465819	12	110.699	8.8412e-05
2	1	0	1	0	3499.1	0.924033	0.922672	0.101275	5	0.0469183	12	114.033	9.34433e-05
2	1	0	1	0	3502.43	0.964042	0.96259	0.102356	5	0.0472581	12	117.367	9.85266e-05
2	1	0	1	0	3505.64	0.99745	0.996025	0.102807	5	0.0475883	12	120.577	0.000102398
2	1	0	1	0	3508.98	0.95744	0.956015	0.097957	5	0.0479221	12	123.911	9.36484e-05
2	1	0	1	0	3512.31	0.917433	0.916043	0.0937249	5	0.0482407	12	127.245	8.5856e-05
2	1	0	1	0	3515.65	0.877425	0.876061	0.0899402	5	0.0485461	12	130.579	7.87931e-05
2	1	0	1	0	3518.98	0.837414	0.835922	0.0863724	5	0.0488396	12	133.913	7.22006e-05
2	1	0	1	0	3522.31	0.797406	0.795866	0.0832068	5	0.049122	12	137.247	6.62214e-05
2	1	0	1	0	3525.65	0.757398	0.755834	0.0801566	5	0.0493939	12	140.581	6.05851e-05
2	1	0	1	0	3528.98	0.71739	0.715826	0.0771499	5	0.0496558	12	143.915	5.52259e-05
2	1	0	1	0	3532.32	0.67738	0.675925	0.0743531	5	0.0499079	12	147.249	5.02571e-05
2	1	0	1	0	3535.65	0.637372	0.635921	0.0715709	5	0.0501505	12	150.583	4.55135e-05
2	1	0	1	0	3538.98	0.597364	0.59595	0.0688647	5	0.0503838	12	153.917	4.10399e-05
2	1	0	1	0	3542.32	0.557356	0.55585	0.0660788	5	0.0506078	12	157.251	3.67299e-05
2	1	0	1	0	3545.65	0.517345	0.515806	0.0632412	5	0.0508228	12	160.585	3.26202e-05
2	1	0	1	0	3548.99	0.477338	0.475772	0.0604543	5	0.0510287	12	163.919	2.87625e-05
2	1	0	1	0	3552.32	0.43733	0.43592	0.0578935	5	0.0512257	12	167.253	2.52369e-05
2	1	0	1	0	3555.66	0.397321	0.395961	0.0553029	5	0.0514137	12	170.587	2.18978e-05
2	1	0	1	0	3558.99	0.357311	0.355954	0.052665	5	0.0515928	12	173.922	1.87463e-05
2	1	0	1	0	3562.32	0.317303	0.315797	0.0497402	5	0.051763	12	177.256	1.57078e-05
2	1	0	1	0	3565.66	0.277295	0.275994	0.047416	5	0.0519241	12	180.59	1.30865e-05
2	1	0	1	0	3569.02	0.236985	0.23569	0.0441139	5	0.0520758	13	183.949	1.03972e-05
2	1	0	1	0	3572.35	0.196977	0.195512	0.0412707	5	0.0522171	13	187.283	8.06892e-06
2	1	0	1	0	3575.68	0.156969	0.155451	0.0383912	5	0.052349	13	190.617	5.96796e-06
2	1	0	1	0	3579.02	0.116961	0.11543	0.0354614	5	0.0524715	13	193.951	4.09331e-06
2	1	0	1	0	3582.35	0.0769504	0.0754656	0.0326257	5	0.0525843	13	197.285	2.46211e-06
2	1	0	1	0	3585.69	0.0369425	0.0356229	0.0295159	5	0.0526872	13	200.619	1.05144e-06
2	1	0	1	0	3589.02	-0.00306529	-0.00455918	0.0262684	5	0.0527795	13	203.953	-1.19762e-07
2	1	0	1	0	3592.35	-0.0430747	-0.0446893	0.0225621	5	0.0528605	13	207.287	-1.00829e-06
2	1	0	1	0	3595.69	-0.0830842	-0.0846817	0.0183462	5	0.052929	13	210.621	-1.55359e-06
2	1	0	1	0	3599.02	-0.123092	-0.124677	0.0148326	5	0.0529846	13	213.955	-1.84928e-06
2	1	0	1	0	3602.36	-0.1631	-0.164635	0.0116201	5	0.0530278	13	217.289	-1.91308e-06
2	1	0	1	0	3605.69	-0.20311	-0.204414	0.00909543	5	0.0530604	13	220.623	-1.85923e-06
2	1	0	1	0	3609.03	-0.243118	-0.24462	0.00570596	5	0.0530829	13	223.957	-1.39579e-06
2	0	0	1	0	3612.36	-0.283127	-0.284699	0.00210684	5	0.0530944	13	227.291	-5.99814e-07
2	0	0	1	0	3615.69	-0.323134	-0.324752	-0.00193614	5	0.0530945	13	1.5002	6.28767e-07
2	0	0	1	0	3619.03	-0.363145	-0.364707	-0.00491798	5	0.0530836	13	4.8344	1.79362e-06
2	0	0	1	0	3622.36	-0.403153	-0.404697	-0.00791486	5	0.053062	13	8.1684	3.20312e-06
2	0	0	1	0	3625.7	-0.443161	-0.444995	-0.010787	5	0.0530296	13	11.5024	4.80016e-06
2	0	0	1	0	3629.03	-0.483169	-0.484762	-0.0144691	5	0.0529859	13	14.8364	7.01405e-06
2	0	0	1	0	3632.36	-0.523179	-0.524595	-0.0182053	5	0.0529303	13	18.1706	9.55044e-06
2	0	0	1	0	3635.7	-0.563187	-0.564749	-0.0225334	5	0.0528622	13	21.5046	1.27257e-05
2	0	0	1	0	3639.03	-0.603195	-0.604779	-0.0263853	5	0.052781	13	24.8386	1.59573e-05
2	0	0	1	0	3642.37	-0.643204	-0.644748	-0.0303457	5	0.0526863	13	28.1727	1.95653e-05
2	0	0	1	0	3645.7	-0.683214	-0.684775	-0.0343481	5	0.0525776	13	31.5068	2.35208e-05
2	0	0	1	0	3649.03	-0.723222	-0.724812	-0.0386255	5	0.0524545	13	34.8408	2.79962e-05
2	0	0	1	0	3652.37	-0.76323	-0.764718	-0.0433261	5	0.0523167	13	38.1748	3.31322e-05
2	0	0	1	0	3655.7	-0.80324	-0.804831	-0.048159	5	0.0521636	13	41.509	3.87598e-05
2	0	0	1	0	3659.04	-0.843248	-0.844786	-0.0532441	5	0.0519947	13	44.843	4.49799e-05
2	0	0	1	0	3662.37	-0.883256	-0.884818	-0.0584211	5	0.0518092	13	48.177	5.16921e-05
2	0	0	1	0	3665.7	-0.923264	-0.92482	-0.0640566	5	0.0516054	13	51.511	5.92408e-05
2	0	0	1	0	3669.04	-0.963274	-0.964814	-0.0700381	5	0.0513813	13	54.8452	6.75737e-05
2	0	0	1	1	3672.23	-0.998482	-1.00008	-0.0751307	5	0.0511475	13	58.038	7.51366e-05
2	0	0	1	1	3675.56	-0.958472	-0.960072	-0.0676181	5	0.0509104	13	61.3721	6.49182e-05
2	0	0	1	1	3678.9	-0.918463	-0.920038	-0.0609653	5	0.0506962	13	64.7062	5.60904e-05
2	0	0	1	1	3682.23	-0.878455	-0.880053	-0.0550713	5	0.0505028	13	68.0402	4.84657e-05
2	0	0	1	1	3685.57	-0.838447	-0.840142	-0.0496863	5	0.0503288	13	71.3742	4.17436e-05
2	0	0	1	1	3688.9	-0.798438	-0.799988	-0.0445493	5	0.0501731	13	74.7083	3.56389e-05
2	0	0	1	1	3692.24	-0.758429	-0.759972	-0.0391623	5	0.0500352	13	78.0424	2.97622e-05
2	0	0	1	1	3695.57	-0.718421	-0.719974	-0.0338954	5	0.0499146	13	81.3764	2.44038e-05
2	0	0	1	1	3698.9	-0.678413	-0.679953	-0.0286082	5	0.049811	13	84.7104	1.94523e-05
2	0	0	1	1	3702.24	-0.638403	-0.640151	-0.0234825	5	0.0497242	13	88.0446	1.50323e-05
2	0	0	1	1	3705.57	-0.598394	-0.599814	-0.0184509	5	0.049654	13	91.3786	1.10671e-05
2	0	0	1	1	3708.91	-0.558386	-0.559925	-0.0136863	5	0.0496003	13	94.7126	7.66331e-06
2	0	0	1	1	3712.24	-0.518378	-0.51997	-0.00893175	5	0.0495628	13	98.0466	4.64425e-06
2	0	0	1	1	3715.57	-0.478368	-0.479921	-0.00396442	5	0.0495414	13	101.381	1.90261e-06
2	0	0	1	1	3718.91	-0.43836	-0.43987	0.00077494	5	0.0495362	13	0.5002	-3.40873e-07
2	1	0	1	1	3722.24	-0.398352	-0.399837	0.00555369	5	0.0495471	13	3.8342	-2.22057e-06
2	1	0	1	1	3725.47	-0.359642	-0.361207	0.00986947	6	0.049573	13	7.06	-3.56492e-06
2	1	0	1	1	3728.8	-0.319634	-0.321248	0.0144435	6	0.0496155	13	10.394	-4.63994e-06
2	1	0	1	1	3732.14	-0.279627	-0.281151	0.0192513	6	0.0496737	13	13.728	-5.41253e-06
2	1	0	1	1	3735.47	-0.239617	-0.24116	0.0239937	6	0.0497474	13	17.0621	-5.78631e-06
2	1	0	1	1	3738.8	-0.199608	-0.201192	0.0287694	6	0.0498364	13	20.3962	-5.78817e-06
2	1	0	1	1	3742.14	-0.1596	-0.161159	0.0333041	6	0.0499403	13	23.7302	-5.36726e-06
2	1	0	1	1	3745.47	-0.119592	-0.121175	0.0377441	6	0.0500592	13	27.0642	-4.57364e-06
2	1	0	1	1	3748.81	-0.0795818	-0.0810593	0.0425029	6	0.0501929	13	30.3984	-3.44525e-06
2	1	0	1	1	3752.14	-0.0395734	-0.0411745	0.0469487	6	0.0503416	13	33.7324	-1.93309e-06
2	1	0	1	1	3755.47	0.000436397	-0.0011288	0.0509187	6	0.0505045	13	37.0664	-5.74769e-08
2	1	0	1	1	3758.81	0.0404425	0.0389346	0.0547119	6	0.0506808	13	40.4004	2.13019e-06
2	1	0	1	1	3762.14	0.0804527	0.0789615	0.0586949	6	0.0508701	13	43.7346	4.63464e-06
2	1	0	1	1	3765.48	0.120461	0.118952	0.0624029	6	0.0510721	13	47.0686	7.42292e-06
2	1	0	1	1	3768.81	0.160469	0.15892	0.0657561	6	0.0512858	13	50.4026	1.045e-05
2	1	0	1	1	3772.14	0.200477	0.199006	0.0689126	6	0.0515106	13	53.7366	1.3714e-05
2	1	0	1	1	3775.48	0.240487	0.239035	0.0717214	6	0.0517453	13	57.0708	1.71439e-05
2	1	0	1	1	3778.81	0.280495	0.278991	0.0743067	6	0.0519892	13	60.4048	2.07309e-05
2	1	0	1	1	3782.15	0.320503	0.319075	0.0767678	6	0.0522413	13	63.7388	2.44947e-05
2	1	0	1	1	3785.48	0.360512	0.359124	0.0789497	6	0.052501	13	67.0729	2.83527e-05
2	1	0	1	1	3788.81	0.400522	0.398995	0.0807562	6	0.0527674	13	70.407	3.22214e-05
2	1	0	1	1	3792.15	0.44053	0.439093	0.0824858	6	0.0530399	13	73.741	3.62189e-05
2	1	0	1	1	3795.48	0.480537	0.479039	0.0841068	6	0.0533179	13	77.075	4.02904e-05
2	1	0	1	1	3798.82	0.520548	0.519036	0.0855692	6	0.053601	13	80.4092	4.44135e-05
2	1	0	1	1	3802.15	0.560556	0.559048	0.0869115	6	0.0538886	13	83.7432	4.85877e-05
2	1	0	1	1	3805.48	0.600564	0.598999	0.0881369	6	0.0541807	13	87.0772	5.27939e-05
2	1	0	1	1	3808.82	0.640572	0.639118	0.0895018	6	0.0544772	13	90.4112	5.72022e-05
2	1	0	1	1	3812.15	0.680582	0.679105	0.0908899	6	0.0547781	13	93.7454	6.17238e-05
2	1	0	1	1	3815.49	0.72059	0.71906	0.0921695	6	0.0550834	13	97.0794	6.62754e-05
2	1	0	1	1	3818.82	0.760598	0.759158	0.0934524	6	0.0553931	13	100.413	7.09452e-05
2	1	0	1	1	3822.19	0.801007	0.799605	0.0954132	6	0.0557122	12	103.781	7.62928e-05
2	1	0	1	1	3825.52	0.841015	0.839556	0.0964494	6	0.056032	12	107.115	8.09747e-05
2	1	0	1	1	3828.86	0.881025	0.879541	0.0976057	6	0.0563561	12	110.449	8.58482e-05
2	1	0	1	1	3832.19	0.921033	0.919676	0.0988879	6	0.0566843	12	113.783	9.09448e-05
2	1	0	1	1	3835.52	0.961041	0.959546	0.099692	6	0.0570164	12	117.117	9.56591e-05
2	1	0	1	1	3838.77	1	0.998969	0.104806	6	0.0573436	12	120.364	0.000104698
2	1	0	1	1	3842.07	0.960442	0.959063	0.0963549	6	0.0576686	12	123.661	9.24104e-05
2	1	0	1	1	3845.4	0.920432	0.918969	0.0921138	6	0.0579827	12	126.995	8.46497e-05
2	1	0	1	1	3848.74	0.880425	0.878946	0.0883961	6	0.0582839	12	130.329	7.76954e-05
2	1	0	1	1	3852.07	0.840417	0.838894	0.0851159	6	0.0585733	12	133.663	7.14033e-05
2	1	0	1	1	3855.4	0.800406	0.798887	0.0820294	6	0.0588517	12	136.997	6.55322e-05
2	1	0	1	1	3858.74	0.760398	0.75893	0.0792623	6	0.0591197	12	140.331	6.01546e-05
2	1	0	1	1	3862.07	0.72039	0.718929	0.0760353	6	0.0593778	12	143.665	5.4664e-05
2	1	0	1	1	3865.41	0.680382	0.678901	0.0732672	6	0.0596262	12	146.999	4.97412e-05
2	1	0	1	1	3868.74	0.640372	0.638786	0.0703568	6	0.0598652	12	150.333	4.4943e-05
2	1	0	1	1	3872.07	0.600364	0.598992	0.0677866	6	0.060095	12	153.667	4.06037e-05
2	1	0	1	1	3875.41	0.560356	0.558892	0.0648956	6	0.0603156	12	157.001	3.62696e-05
2	1	0	1	1	3878.74	0.520348	0.518846	0.062238	6	0.0605273	12	160.335	3.22919e-05
2	1	0	1	1	3882.08	0.480337	0.478896	0.0596633	6	0.0607301	12	163.669	2.85725e-05
2	1	0	1	1	3885.41	0.44033	0.438965	0.0570972	6	0.0609241	12	167.003	2.50637e-05
2	1	0	1	1	3888.74	0.400322	0.398836	0.0543766	6	0.0611092	12	170.337	2.16874e-05
2	1	0	1	1	3892.08	0.360313	0.358793	0.0516675	6	0.0612855	12	173.671	1.85379e-05
2	1	0	1	1	3895.41	0.320303	0.318887	0.0489513	6	0.061453	12	177.006	1.56099e-05
2	1	0	1	1	3898.75	0.280295	0.278707	0.0460203	6	0.0616116	12	180.34	1.28262e-05
2	1	0	1	1	3902.11	0.239987	0.238353	0.0429246	6	0.0617622	13	183.699	1.02312e-05
2	1	0	1	1	3905.44	0.199977	0.198431	0.0403265	6	0.0619012	13	187.033	8.00204e-06
2	1	0	1	1	3908.77	0.159969	0.158429	0.037562	6	0.0620311	13	190.367	5.95091e-06
2	1	0	1	1	3912.11	0.119961	0.118435	0.0346555	6	0.0621517	13	193.701	4.10443e-06
2	1	0	1	1	3915.44	0.0799526	0.0784935	0.0317605	6	0.0622627	13	197.035	2.49299e-06
2	1	0	1	1	3918.78	0.0399424	0.0384723	0.0288603	6	0.062364	13	200.369	1.11032e-06
2	1	0	1	1	3922.11	-6.54387e-05	-0.00158083	0.0256962	6	0.062455	13	203.703	-4.06214e-08
2	1	0	1	1	3925.44	-0.0400733	-0.041653	0.0221244	6	0.0625349	13	207.037	-9.21547e-07
2	1	0	1	1	3928.78	-0.0800827	-0.0815767	0.0183618	6	0.0626028	13	210.371	-1.4979e-06
2	1	0	1	1	3932.11	-0.120092	-0.121685	0.0147623	6	0.0626581	13	213.705	-1.79635e-06
2	1	0	1	1	3935.45	-0.1601	-0.161661	0.0113034	6	0.0627014	13	217.039	-1.82733e-06
2	1	0	1	1	3938.78	-0.200108	-0.201662	0.00866213	6	0.0627339	13	220.373	-1.74682e-06
2	0	0	1	1	3942.11	-0.240118	-0.241702	0.00577645	6	0.0627564	13	223.707	-1.39618e-06
2	1	0	1	1	3945.45	-0.280127	-0.281705	0.00213746	6	0.0627683	13	227.041	-6.02133e-07
2	1	0	1	1	3948.78	-0.320135	-0.321684	-0.00153217	6	0.0627692	13	1.2502	4.92875e-07
2	0	0	1	1	3952.12	-0.360142	-0.361699	-0.00420798	6	0.0627595	13	4.5842	1.52202e-06
2	1	0	1	1	3955.45	-0.400153	-0.401653	-0.00691396	6	0.0627396	13	7.9184	2.77701e-06
2	0	0	1	1	3958.78	-0.440161	-0.441574	-0.0103522	6	0.0627092	13	11.2524	4.57125e-06
2	0	0	1	1	3962.12	-0.480169	-0.481654	-0.014017	6	0.0626681	13	14.5864	6.75134e-06
2	0	0	1	1	3965.45	-0.520177	-0.521752	-0.0175607	6	0.0626155	13	17.9204	9.16232e-06
2	0	0	1	1	3968.79	-0.560187	-0.561712	-0.0208476	6	0.062551	13	21.2546	1.17103e-05
2	0	0	1	1	3972.12	-0.600195	-0.601713	-0.024638	6	0.062474	13	24.5886	1.4825e-05
2	0	0	1	1	3975.46	-0.640203	-0.641644	-0.0285896	6	0.062384	13	27.9226	1.83444e-05
2	0	0	1	1	3978.79	-0.680212	-0.68176	-0.0327005	6	0.0622807	13	31.2567	2.22939e-05
2	0	0	1	1	3982.12	-0.720222	-0.721723	-0.0368592	6	0.0621635	13	34.5908	2.66021e-05
2	0	0	1	1	3985.46	-0.76023	-0.761594	-0.0413691	6	0.0620321	13	37.9248	3.15065e-05
2	0	0	1	1	3988.79	-0.800238	-0.801766	-0.0459858	6	0.0618862	13	41.2588	3.68698e-05
2	0	0	1	1	3992.13	-0.840248	-0.841869	-0.0509992	6	0.0617251	13	44.593	4.29346e-05
2	0	0	1	1	3995.46	-0.880256	-0.881792	-0.0556608	6	0.061548	13	47.927	4.90813e-05
2	0	0	1	1	3998.79	-0.920264	-0.921825	-0.0611025	6	0.0613533	13	51.261	5.63258e-05
2	0	0	1	1	4002.13	-0.960272	-0.961762	-0.0669378	6	0.061139	13	54.595	6.43782e-05
2	0	0	1	1	4005.43	-0.999881	-1.00145	-0.0729228	6	0.0609068	13	57.8958	7.30283e-05
2	0	0	1	0	4008.65	-0.961474	-0.963039	-0.0656646	6	0.0606839	13	61.122	6.32375e-05
2	0	0	1	0	4011.99	-0.921464	-0.922991	-0.0594497	6	0.0604757	13	64.4561	5.48715e-05
2	0	0	1	0	4015.32	-0.881455	-0.883033	-0.0538876	6	0.0602877	13	67.7902	4.75845e-05
2	0	0	1	0	4018.66	-0.841447	-0.843012	-0.0483406	6	0.0601184	13	71.1242	4.07516e-05
2	0	0	1	0	4021.99	-0.801439	-0.802997	-0.0428507	6	0.0599669	13	74.4582	3.4409e-05
2	0	0	1	0	4025.32	-0.76143	-0.762964	-0.0376923	6	0.0598325	13	77.7923	2.87579e-05
2	0	0	1	0	4028.66	-0.721421	-0.722985	-0.0329841	6	0.0597148	13	81.1264	2.3847e-05
2	0	0	1	0	4031.99	-0.681413	-0.683083	-0.0283375	6	0.0596134	13	84.4604	1.93569e-05
2	0	0	1	0	4035.33	-0.641405	-0.64295	-0.0237692	6	0.0595282	13	87.7944	1.52824e-05
2	0	0	1	0	4038.66	-0.601395	-0.602951	-0.0186317	6	0.059459	13	91.1286	1.1234e-05
2	0	0	1	0	4042	-0.561386	-0.562931	-0.0139069	6	0.0594056	13	94.4626	7.8286e-06
2	0	0	1	0	4045.33	-0.521378	-0.522947	-0.0090058	6	0.0593679	13	97.7966	4.70956e-06
2	0	0	1	0	4048.66	-0.48137	-0.482912	-0.00431516	6	0.0593458	13	101.131	2.08384e-06
2	0	0	1	0	4052	-0.44136	-0.44293	0.000421938	6	0.0593392	13	0.1668	-1.86889e-07
2	1	0	1	0	4055.33	-0.401352	-0.402769	0.0048988	6	0.0593484	13	3.5008	-1.97308e-06
2	1	0	0	0	4056.75	-0.384298	-0.385821	0.0162291	6	0.0593569	13	4.9151	-6.26152e-06