File: resorufin_10x_frittedTiCt_FTOWE_AgAgClref_N2sparge_3_16_CV_C12/resorufin_10x_frittedTiCt_FTOWE_AgAgClref_N2sparge_3_08_CV_C12.txt
EC-Lab ASCII FILE
Nb header lines : 59

Cyclic Voltammetry

Run on channel : 12 (SN 15159)
User :
CE vs. WE compliance from -10 V to 10 V
Electrode connection : standard
Potential control : Ewe
Ewe ctrl range : min = -2.50 V, max = 2.50 V
Safety Limits :
	Do not start on E overload
Acquisition started on : 06/27/2024 22:37:21.030
Technique started on : 06/27/2024 22:42:07.393
Loaded Setting File :  NONE
Saved on :
	File : resorufin_10x_frittedTiCt_FTOWE_AgAgClref_N2sparge_3_08_CV_C12.mpr
	Directory : C:\Users\user\OneDrive - California Institute of Technology\Desktop\Big James\06272024_resorufin_spEC_test\
	Host : 10.8.34.190
Device : VMP3 (SN 1026)
Address : 131.215.231.69
EC-Lab for windows v11.50 (software)
Internet server v11.52 (firmware)
Command interpretor v11.50 (firmware)
Electrode material : Au/Pd
Initial state :
Electrolyte : NaCl (0.2M)
Comments : Fe(CN)63-/Fe(CN)64- 5.10-3 M
Reference electrode : SCE Saturated Calomel Electrode (0.241 V)
Electrode surface area : 0.001 cm²
Characteristic mass : 0.001 g
Equivalent Weight : 0.000 g/eq.
Density : 0.000 g/cm3
Volume (V) : 0.001 cm³
Cycle Definition : Charge/Discharge alternance
Ei (V)              0.000
vs.                 Eoc
dE/dt               100.000
dE/dt unit          mV/s
E1 (V)              1.000
vs.                 Ref
Step percent        50
N                   10
E range min (V)     -2.500
E range max (V)     2.500
I Range             Auto
I Range min         Unset
I Range max         Unset
I Range init        Unset
Bandwidth           5
E2 (V)              -1.000
vs.                 Ref
nc cycles           5
Reverse Scan        1
Ef (V)              0.000
vs.                 Eoc

mode	ox/red	error	control changes	counter inc.	time/s	control/V	Ewe/V	<I>/mA	cycle number	(Q-Qo)/C	I Range	step time/s	P/W
2	1	0	1	0	286.363	-0.356292	-0.357746	0.00927452	1	0.0000000E+000	14	0.000000000000000E+000	-3.31792e-06
2	1	0	1	0	286.789	-0.313733	-0.315274	0.0119774	1	3.60842e-06	13	0.395	-3.77617e-06
2	1	0	1	0	287.189	-0.273725	-0.275144	0.0207169	1	1.05634e-05	13	0.795	-5.70014e-06
2	1	0	1	0	287.589	-0.233716	-0.235212	0.0291841	1	2.11203e-05	13	1.1952	-6.86446e-06
2	1	0	1	0	287.989	-0.193707	-0.195228	0.0377109	1	3.52405e-05	13	1.5952	-7.36224e-06
2	1	0	1	0	288.389	-0.153699	-0.155305	0.0462903	1	5.28065e-05	13	1.9954	-7.18913e-06
2	1	0	1	0	288.789	-0.11369	-0.115273	0.0546685	1	7.36267e-05	13	2.3954	-6.30179e-06
2	1	0	1	0	289.189	-0.0736814	-0.0751883	0.0623136	1	9.75429e-05	13	2.7956	-4.68526e-06
2	1	0	1	0	289.589	-0.0336727	-0.0352693	0.0692525	1	0.000124331	13	3.1956	-2.44249e-06
2	1	0	1	0	289.989	0.00633594	0.00480989	0.0760513	1	0.000153779	13	3.5956	3.65798e-07
2	1	0	1	0	290.389	0.0463446	0.0447713	0.0831029	1	0.000185714	13	3.9958	3.72062e-06
2	1	0	1	0	290.789	0.0863532	0.0847624	0.0896616	1	0.000220101	13	4.3958	7.59993e-06
2	1	0	1	0	291.22	0.129362	0.127882	0.0964134	1	0.000260629	12	4.826	1.23295e-05
2	1	0	1	0	291.62	0.169371	0.167931	0.103696	1	0.000300685	12	5.226	1.74137e-05
2	1	0	1	0	292.02	0.20938	0.207967	0.110675	1	0.000343507	12	5.6262	2.30166e-05
2	1	0	1	0	292.42	0.249388	0.247944	0.11704	1	0.000389049	12	6.0262	2.90192e-05
2	1	0	1	0	292.82	0.289397	0.287957	0.123474	1	0.000437326	12	6.4262	3.55554e-05
2	1	0	1	0	293.22	0.329406	0.327927	0.130475	1	0.000488354	12	6.8264	4.27863e-05
2	1	0	1	0	293.62	0.369414	0.367925	0.137504	1	0.00054207	12	7.2264	5.05911e-05
2	1	0	1	0	294.02	0.409423	0.407976	0.144754	1	0.000598521	12	7.6266	5.90562e-05
2	1	0	1	0	294.42	0.449431	0.447968	0.15122	1	0.000657672	12	8.0266	6.77418e-05
2	1	0	1	0	294.82	0.48944	0.487947	0.157597	1	0.000719572	12	8.4268	7.68988e-05
2	1	0	1	0	295.22	0.529449	0.527887	0.163886	1	0.00078415	12	8.8268	8.65133e-05
2	1	0	1	0	295.62	0.569457	0.567942	0.171474	1	0.000851447	12	9.2268	9.73871e-05
2	1	0	1	0	296.021	0.609466	0.608001	0.178871	1	0.000921493	12	9.627	0.000108754
2	1	0	1	0	296.421	0.649475	0.648023	0.185659	1	0.00099423	12	10.027	0.000120311
2	1	0	1	0	296.821	0.689483	0.687969	0.192136	1	0.00106972	12	10.4272	0.000132184
2	1	0	1	0	297.221	0.729492	0.727996	0.199225	1	0.00114789	12	10.8272	0.000145035
2	1	0	1	0	297.621	0.7695	0.768105	0.207043	1	0.0012288	12	11.2274	0.000159031
2	1	0	1	0	298.021	0.809509	0.808093	0.214258	1	0.00131236	12	11.6274	0.000173141
2	1	0	1	0	298.421	0.849518	0.848105	0.22057	1	0.00139868	12	12.0276	0.000187066
2	1	0	1	0	298.821	0.889526	0.888146	0.227894	1	0.00148768	12	12.4276	0.000202403
2	1	0	1	0	299.221	0.929535	0.928142	0.234855	1	0.00157938	12	12.8276	0.000217979
2	1	0	1	0	299.621	0.969544	0.9682	0.241586	1	0.00167382	12	13.2278	0.000233903
2	1	0	1	0	300.012	0.991448	0.989968	0.238724	1	0.00176833	12	13.6184	0.000236329
2	1	0	1	0	300.412	0.95144	0.949931	0.230178	1	0.00186283	12	14.0184	0.000218653
2	1	0	1	0	300.812	0.911431	0.91005	0.22217	1	0.0019539	12	14.4186	0.000202186
2	1	0	1	0	301.212	0.871422	0.870064	0.214215	1	0.00204162	12	14.8186	0.00018638
2	1	0	1	0	301.612	0.831414	0.829994	0.204316	1	0.00212612	12	15.2188	0.000169581
2	1	0	1	0	302.012	0.791405	0.789895	0.195989	1	0.00220741	12	15.6188	0.000154811
2	1	0	1	0	302.413	0.751397	0.74992	0.189501	1	0.00228558	12	16.019	0.000142111
2	1	0	1	0	302.813	0.711388	0.709901	0.182085	1	0.00236061	12	16.419	0.000129262
2	1	0	1	0	303.213	0.671379	0.669894	0.17441	1	0.00243255	12	16.819	0.000116836
2	1	0	1	0	303.613	0.631371	0.629857	0.165833	1	0.00250145	12	17.2192	0.000104451
2	1	0	1	0	304.013	0.591362	0.589803	0.158233	1	0.00256729	12	17.6192	9.33264e-05
2	1	0	1	0	304.413	0.551353	0.54986	0.152589	1	0.00263014	12	18.0194	8.39027e-05
2	1	0	1	0	304.813	0.511345	0.509893	0.145158	1	0.00268995	12	18.4194	7.40152e-05
2	1	0	1	0	305.213	0.471336	0.46983	0.136042	1	0.00274679	12	18.8196	6.39166e-05
2	1	0	1	0	305.613	0.431328	0.429787	0.128441	1	0.00280063	12	19.2196	5.52025e-05
2	1	0	1	0	306.013	0.391319	0.389736	0.122311	1	0.00285153	12	19.6196	4.76689e-05
2	1	0	1	0	306.413	0.35131	0.349834	0.116492	1	0.0028995	12	20.0198	4.07529e-05
2	1	0	1	0	306.813	0.311302	0.309802	0.108652	1	0.00294451	12	20.4198	3.36606e-05
2	1	0	1	0	307.214	0.271293	0.269787	0.100685	1	0.00298663	12	20.82	2.71634e-05
2	1	0	1	0	307.614	0.231284	0.229737	0.0934346	1	0.0030258	12	21.22	2.14654e-05
2	1	0	1	0	308.014	0.191276	0.189815	0.0872981	1	0.00306206	12	21.6202	1.65705e-05
2	1	0	1	0	308.414	0.151267	0.149777	0.0793267	1	0.00309538	12	22.0202	1.18813e-05
2	1	0	1	0	308.814	0.111259	0.109752	0.0716204	1	0.00312572	12	22.4202	7.86051e-06
2	1	0	1	0	309.214	0.0712499	0.0696933	0.0634967	1	0.00315305	12	22.8204	4.42529e-06
2	1	0	1	0	309.614	0.0312413	0.0296863	0.0554143	1	0.00317721	12	23.2204	1.64504e-06
2	1	0	1	0	310.014	-0.00876732	-0.01029	0.0469999	1	0.00319799	12	23.6206	-4.83627e-07
2	1	0	1	0	310.414	-0.048776	-0.050332	0.0362956	1	0.00321494	12	24.0206	-1.82683e-06
2	1	0	1	0	310.814	-0.0887846	-0.0903157	0.024387	1	0.00322769	12	24.4208	-2.20253e-06
2	1	0	1	0	311.214	-0.128793	-0.130364	0.0132989	1	0.00323602	12	24.8208	-1.73369e-06
2	1	0	1	0	311.614	-0.168802	-0.17037	0.00308799	1	0.00324012	12	25.2208	-5.26101e-07
2	0	0	1	0	312.015	-0.208811	-0.21035	-0.00447924	1	0.00324057	12	0.12	9.42206e-07
2	0	0	1	0	312.415	-0.248819	-0.250345	-0.0102758	1	0.00323825	12	0.52	2.5725e-06
2	0	0	1	0	312.815	-0.288828	-0.290363	-0.0155097	1	0.00323392	12	0.9202	4.50344e-06
2	0	0	1	0	313.215	-0.328836	-0.330412	-0.0198828	1	0.0032278	12	1.3202	6.56951e-06
2	0	0	1	0	313.615	-0.368845	-0.370401	-0.0240308	1	0.00321977	12	1.7204	8.90103e-06
2	0	0	1	0	314.015	-0.408854	-0.410404	-0.0290159	1	0.00320961	12	2.1204	1.19083e-05
2	0	0	1	0	314.415	-0.448854	-0.450383	-0.0338628	1	0.0031972	12	2.5205	1.52512e-05
2	0	0	1	0	314.815	-0.488871	-0.490437	-0.0394934	1	0.00318267	12	2.9206	1.9369e-05
2	0	0	1	0	315.215	-0.52888	-0.530481	-0.0453111	1	0.00316581	12	3.3206	2.40367e-05
2	0	0	1	0	315.615	-0.568888	-0.570467	-0.0509909	1	0.00314646	12	3.7208	2.90886e-05
2	0	0	1	0	316.015	-0.608897	-0.610495	-0.0571915	1	0.00312456	12	4.1208	3.49152e-05
2	0	0	1	0	316.416	-0.648906	-0.65047	-0.0626602	1	0.00310003	12	4.521	4.07585e-05
2	0	0	1	0	316.816	-0.688914	-0.690424	-0.0694932	1	0.00307286	12	4.921	4.79798e-05
2	0	0	1	0	317.216	-0.728923	-0.730491	-0.0757834	1	0.00304301	12	5.3212	5.53591e-05
2	0	0	1	0	317.616	-0.768932	-0.770481	-0.0819218	1	0.00301048	12	5.7212	6.31192e-05
2	0	0	1	0	318.016	-0.80894	-0.810497	-0.088458	1	0.00297525	12	6.1212	7.16949e-05
2	0	0	1	0	318.416	-0.848949	-0.850525	-0.0944405	1	0.00293728	12	6.5214	8.0324e-05
2	0	0	1	0	318.816	-0.888957	-0.890484	-0.101251	1	0.00289659	12	6.9214	9.01624e-05
2	0	0	1	0	319.216	-0.928966	-0.930519	-0.10848	1	0.00285311	12	7.3216	0.000100942
2	0	0	1	0	319.616	-0.968975	-0.97054	-0.115473	1	0.0028068	12	7.7216	0.000112071
2	0	0	1	1	320.002	-0.99248	-0.994054	-0.116159	1	0.00275977	12	8.1072	0.000115468
2	0	0	1	1	320.402	-0.952471	-0.954015	-0.105248	1	0.00271466	12	8.5072	0.000100408
2	0	0	1	1	320.802	-0.912463	-0.91402	-0.0968521	1	0.00267343	12	8.9072	8.85248e-05
2	0	0	1	1	321.202	-0.872454	-0.873942	-0.0883706	1	0.00263561	12	9.3074	7.72308e-05
2	0	0	1	1	321.602	-0.832445	-0.833897	-0.0806072	1	0.00260108	12	9.7074	6.72181e-05
2	0	0	1	1	322.002	-0.792437	-0.793899	-0.0738084	1	0.0025697	12	10.1076	5.85964e-05
2	0	0	1	1	322.402	-0.752428	-0.753956	-0.0665273	1	0.00254145	12	10.5076	5.01587e-05
2	0	0	1	1	322.802	-0.712419	-0.713931	-0.0581359	1	0.00251624	12	10.9078	4.1505e-05
2	0	0	1	1	323.202	-0.672411	-0.67391	-0.0509214	1	0.00249406	12	11.3078	3.43164e-05
2	0	0	1	1	323.603	-0.632402	-0.633812	-0.0431643	1	0.00247487	12	11.708	2.73581e-05
2	0	0	1	1	324.003	-0.592393	-0.593785	-0.0363075	1	0.00245867	12	12.108	2.15589e-05
2	0	0	1	1	324.403	-0.552385	-0.55381	-0.0286623	1	0.00244545	12	12.508	1.58735e-05
2	0	0	1	1	324.803	-0.512376	-0.513898	-0.0221241	1	0.00243521	12	12.9082	1.13695e-05
2	0	0	1	1	325.203	-0.472368	-0.473963	-0.0143331	1	0.00242798	12	13.3082	6.79337e-06
2	0	0	1	1	325.603	-0.432359	-0.433892	-0.00573525	1	0.00242382	12	13.7084	2.48848e-06
2	1	0	1	1	326.003	-0.39235	-0.393875	0.00265563	1	0.00242282	12	0.06	-1.04599e-06
2	1	0	1	1	326.39	-0.353642	-0.35515	0.0051804	2	0.00242495	12	0.4472	-1.83982e-06
2	1	0	1	1	326.79	-0.313633	-0.31511	0.0134694	2	0.0024304	12	0.8472	-4.24433e-06
2	1	0	1	1	327.19	-0.273625	-0.275132	0.0218628	2	0.00243919	12	1.2472	-6.01515e-06
2	1	0	1	1	327.59	-0.233616	-0.235039	0.0293534	2	0.00245135	12	1.6474	-6.8992e-06
2	1	0	1	1	327.99	-0.193607	-0.195067	0.0374494	2	0.00246683	12	2.0474	-7.30514e-06
2	1	0	1	1	328.391	-0.153599	-0.155119	0.0447208	2	0.00248551	12	2.4476	-6.93703e-06
2	1	0	1	1	328.791	-0.11359	-0.115127	0.0519323	2	0.00250722	12	2.8476	-5.97883e-06
2	1	0	1	1	329.191	-0.0735813	-0.075184	0.0599596	2	0.00253183	12	3.2478	-4.50801e-06
2	1	0	1	1	329.591	-0.0335727	-0.0351802	0.0667888	2	0.00255914	12	3.6478	-2.34964e-06
2	1	0	1	1	329.991	0.00643596	0.00497965	0.0735725	2	0.00258896	12	4.0478	3.66366e-07
2	1	0	1	1	330.391	0.0464446	0.0450419	0.080159	2	0.00262109	12	4.448	3.61051e-06
2	1	0	1	1	330.791	0.0864532	0.085017	0.0865675	2	0.00265554	12	4.848	7.35971e-06
2	1	0	1	1	331.191	0.126462	0.125043	0.092852	2	0.00269245	12	5.2482	1.16105e-05
2	1	0	1	1	331.591	0.16647	0.165012	0.0996239	2	0.00273193	12	5.6482	1.64391e-05
2	1	0	1	1	331.991	0.206479	0.204935	0.106847	2	0.00277407	12	6.0484	2.18968e-05
2	1	0	1	1	332.391	0.246488	0.244975	0.113957	2	0.00281882	12	6.4484	2.79166e-05
2	1	0	1	1	332.791	0.286496	0.284988	0.120975	2	0.00286621	12	6.8484	3.44765e-05
2	1	0	1	1	333.192	0.326505	0.325038	0.128403	2	0.00291625	12	7.2486	4.17357e-05
2	1	0	1	1	333.592	0.366514	0.365074	0.134985	2	0.00296889	12	7.6486	4.92794e-05
2	1	0	1	1	333.992	0.406522	0.405111	0.14062	2	0.00302418	12	8.0488	5.69669e-05
2	1	0	1	1	334.392	0.446531	0.445104	0.147135	2	0.00308207	12	8.4488	6.54901e-05
2	1	0	1	1	334.792	0.486539	0.485032	0.154277	2	0.00314261	12	8.849	7.48292e-05
2	1	0	1	1	335.192	0.526548	0.52505	0.161343	2	0.00320575	12	9.249	8.47129e-05
2	1	0	1	1	335.592	0.566557	0.565067	0.168019	2	0.00327153	12	9.649	9.49421e-05
2	1	0	1	1	335.992	0.606565	0.60511	0.174548	2	0.00333997	12	10.0492	0.000105621
2	1	0	1	1	336.392	0.646574	0.645159	0.180826	2	0.00341101	12	10.4492	0.000116662
2	1	0	1	1	336.792	0.686583	0.685099	0.186926	2	0.00348472	12	10.8494	0.000128063
2	1	0	1	1	337.192	0.726591	0.725104	0.193328	2	0.00356104	12	11.2494	0.000140183
2	1	0	1	1	337.593	0.7666	0.765135	0.201242	2	0.00364002	12	11.6496	0.000153978
2	1	0	1	1	337.993	0.806609	0.805142	0.207852	2	0.00372159	12	12.0496	0.000167351
2	1	0	1	1	338.393	0.846617	0.845242	0.214342	2	0.0038058	12	12.4496	0.000181171
2	1	0	1	1	338.793	0.886626	0.88524	0.22058	2	0.0038927	12	12.8498	0.000195266
2	1	0	1	1	339.193	0.926634	0.925268	0.227183	2	0.00398218	12	13.2498	0.000210205
2	1	0	1	1	339.593	0.966643	0.965233	0.233049	2	0.00407433	12	13.65	0.000224947
2	1	0	1	1	339.983	0.994449	0.993116	0.236459	2	0.00416644	12	14.0396	0.000234831
2	1	0	1	1	340.383	0.95444	0.953091	0.227997	2	0.00425908	12	14.4396	0.000217302
2	1	0	1	1	340.783	0.914432	0.913005	0.218628	2	0.00434833	12	14.8398	0.000199608
2	1	0	1	1	341.183	0.874423	0.872951	0.209555	2	0.0044343	12	15.2398	0.000182932
2	1	0	1	1	341.583	0.834415	0.832948	0.202414	2	0.00451713	12	15.64	0.0001686
2	1	0	1	1	341.983	0.794406	0.792865	0.195495	2	0.00459679	12	16.04	0.000155001
2	1	0	1	1	342.383	0.754397	0.752965	0.188328	2	0.00467341	12	16.4402	0.000141805
2	1	0	1	1	342.783	0.714389	0.71294	0.1803	2	0.00474695	12	16.8402	0.000128543
2	1	0	1	1	343.183	0.67438	0.672937	0.173409	2	0.00481747	12	17.2402	0.000116694
2	1	0	1	1	343.583	0.634371	0.63289	0.164911	2	0.00488503	12	17.6404	0.000104371
2	1	0	1	1	343.983	0.594363	0.592797	0.15714	2	0.00494957	12	18.0404	9.31521e-05
2	1	0	1	1	344.384	0.554354	0.552804	0.149707	2	0.00501119	12	18.4406	8.27584e-05
2	1	0	1	1	344.784	0.514345	0.51281	0.142548	2	0.00506983	12	18.8406	7.31e-05
2	1	0	1	1	345.184	0.474337	0.472894	0.13666	2	0.00512558	12	19.2408	6.46258e-05
2	1	0	1	1	345.584	0.434328	0.432906	0.12903	2	0.00517839	12	19.6408	5.58577e-05
2	1	0	1	1	345.984	0.39432	0.392911	0.121838	2	0.00522831	12	20.0408	4.78715e-05
2	1	0	1	1	346.384	0.354311	0.35284	0.113457	2	0.00527538	12	20.441	4.0032e-05
2	1	0	1	1	346.784	0.314302	0.312805	0.10631	2	0.00531955	12	20.841	3.32544e-05
2	1	0	1	1	347.184	0.274294	0.27276	0.0993983	2	0.00536088	12	21.2412	2.71119e-05
2	1	0	1	1	347.584	0.234285	0.232743	0.0927751	2	0.00539933	12	21.6412	2.15928e-05
2	1	0	1	1	347.984	0.194276	0.192805	0.0864669	2	0.00543494	12	22.0414	1.66713e-05
2	1	0	1	1	348.384	0.154268	0.152822	0.0793527	2	0.00546765	12	22.4414	1.21268e-05
2	1	0	1	1	348.784	0.114259	0.112837	0.0718778	2	0.00549747	12	22.8414	8.11046e-06
2	1	0	1	1	349.185	0.0742506	0.0727672	0.0629967	2	0.00552435	12	23.2416	4.58409e-06
2	1	0	1	1	349.585	0.034242	0.0328005	0.0554023	2	0.00554813	12	23.6416	1.81722e-06
2	1	0	1	1	349.985	-0.00576667	-0.00738268	0.0468615	2	0.00556859	12	24.0418	-3.45964e-07
2	1	0	1	1	350.385	-0.0457753	-0.0473494	0.0377092	2	0.0055853	12	24.4418	-1.78551e-06
2	1	0	1	1	350.785	-0.085784	-0.0872609	0.0273496	2	0.00559783	12	24.842	-2.38655e-06
2	1	0	1	1	351.185	-0.125793	-0.127267	0.0161298	2	0.00560591	12	25.242	-2.0528e-06
2	1	0	1	1	351.585	-0.165801	-0.167252	0.00555898	2	0.00560971	12	25.642	-9.29748e-07
2	1	0	1	1	351.985	-0.20581	-0.207297	-0.00424838	2	0.00560986	12	0.13	8.80676e-07
2	1	0	1	1	352.385	-0.245819	-0.247336	-0.0100966	2	0.00560725	12	0.53	2.49726e-06
2	1	0	1	1	352.785	-0.285827	-0.287367	-0.0147802	2	0.00560268	12	0.9302	4.24733e-06
2	1	0	1	1	353.185	-0.325836	-0.327388	-0.0191093	2	0.00559638	12	1.3302	6.25617e-06
2	1	0	1	1	353.586	-0.365844	-0.36734	-0.0244011	2	0.00558831	12	1.7304	8.96348e-06
2	0	0	1	1	353.986	-0.405853	-0.407317	-0.0301899	2	0.00557829	12	2.1304	1.22969e-05
2	0	0	1	1	354.386	-0.445862	-0.447312	-0.0358028	2	0.00556621	12	2.5304	1.6015e-05
2	0	0	1	1	354.786	-0.48587	-0.487385	-0.0424703	2	0.00555208	12	2.9306	2.06994e-05
2	0	0	1	1	355.186	-0.525879	-0.52743	-0.0485233	2	0.00553568	12	3.3306	2.55926e-05
2	0	0	1	1	355.586	-0.565888	-0.567457	-0.0539645	2	0.00551683	12	3.7308	3.06225e-05
2	0	0	1	1	355.986	-0.605896	-0.60745	-0.0602596	2	0.00549547	12	4.1308	3.66047e-05
2	0	0	1	1	356.386	-0.645905	-0.647411	-0.0664454	2	0.00547153	12	4.531	4.30174e-05
2	0	0	1	1	356.786	-0.685914	-0.687416	-0.0733931	2	0.005445	12	4.931	5.04516e-05
2	0	0	1	1	357.186	-0.725927	-0.727439	-0.0802048	2	0.00541585	12	5.3311	5.83441e-05
2	0	0	1	1	357.586	-0.765931	-0.767504	-0.0875634	2	0.00538406	12	5.7312	6.72052e-05
2	0	0	1	1	357.986	-0.80594	-0.807494	-0.0940782	2	0.00534963	12	6.1312	7.59676e-05
2	0	0	1	1	358.387	-0.845948	-0.847533	-0.0995732	2	0.00531251	12	6.5314	8.43915e-05
2	0	0	1	1	358.787	-0.885957	-0.88746	-0.10599	2	0.00527274	12	6.9314	9.40622e-05
2	0	0	1	1	359.187	-0.925965	-0.927536	-0.113156	2	0.00523024	12	7.3316	0.000104956
2	0	0	1	1	359.587	-0.965974	-0.967471	-0.120293	2	0.00518499	12	7.7316	0.00011638
2	0	0	1	0	359.972	-0.995481	-0.997066	-0.118249	2	0.00513884	12	8.1172	0.000117902
2	0	0	1	0	360.372	-0.955472	-0.957047	-0.106443	2	0.00509427	12	8.5172	0.000101871
2	0	0	1	0	360.772	-0.915463	-0.917006	-0.0974237	2	0.00505354	12	8.9172	8.93381e-05
2	0	0	1	0	361.173	-0.875455	-0.876972	-0.0897123	2	0.00501617	12	9.3174	7.86751e-05
2	0	0	1	0	361.573	-0.835446	-0.836952	-0.0823541	2	0.00498201	12	9.7174	6.89264e-05
2	0	0	1	0	361.973	-0.795437	-0.797009	-0.0745046	2	0.00495095	12	10.1176	5.93808e-05
2	0	0	1	0	362.373	-0.755429	-0.756943	-0.066468	2	0.00492293	12	10.5176	5.03125e-05
2	0	0	1	0	362.773	-0.71542	-0.716861	-0.0586924	2	0.00489789	12	10.9178	4.20743e-05
2	0	0	1	0	363.173	-0.675411	-0.676848	-0.0520382	2	0.00487582	12	11.3178	3.52219e-05
2	0	0	1	0	363.573	-0.635403	-0.636881	-0.0449081	2	0.00485668	12	11.7178	2.86011e-05
2	0	0	1	0	363.973	-0.595394	-0.596929	-0.0376405	2	0.00484046	12	12.118	2.24687e-05
2	0	0	1	0	364.373	-0.555385	-0.556962	-0.0301467	2	0.00482715	12	12.518	1.67906e-05
2	0	0	1	0	364.773	-0.515377	-0.516807	-0.0221554	2	0.00481675	12	12.9182	1.14501e-05
2	0	0	1	0	365.173	-0.475368	-0.476834	-0.0148838	2	0.00480931	12	13.3182	7.09712e-06
2	0	0	1	0	365.574	-0.43536	-0.436879	-0.00733535	2	0.00480486	12	13.7184	3.20466e-06
2	0	0	1	0	365.974	-0.395351	-0.396895	0.000647249	2	0.00480351	12	0.02	-2.56889e-07
2	1	0	0	0	366.365	-0.356192	-0.357689	0.00537623	3	0.00480528	12	0.4115	-1.92302e-06
2	1	0	1	0	366.761	-0.316634	-0.318138	0.0202765	3	0.00481022	12	0.8072	-6.45071e-06
2	1	0	1	0	367.161	-0.276625	-0.278125	0.0289472	3	0.00481851	12	1.2072	-8.05096e-06
2	1	0	1	0	367.561	-0.236617	-0.238052	0.0364081	3	0.00483012	12	1.6074	-8.66701e-06
2	1	0	1	0	367.961	-0.196608	-0.198107	0.044024	3	0.00484502	12	2.0074	-8.72147e-06
2	1	0	1	0	368.361	-0.156599	-0.158192	0.0513825	3	0.00486308	12	2.4076	-8.12832e-06
2	1	0	1	0	368.761	-0.116591	-0.118151	0.059277	3	0.00488414	12	2.8076	-7.00366e-06
2	1	0	1	0	369.161	-0.076582	-0.0780414	0.0657184	3	0.00490806	12	3.2078	-5.12876e-06
2	1	0	1	0	369.561	-0.0365733	-0.0380525	0.0718336	3	0.00493466	12	3.6078	-2.73344e-06
2	1	0	1	0	369.961	0.00343532	0.00203629	0.0766906	3	0.00496372	12	4.0078	1.56165e-07
2	1	0	1	0	370.362	0.0434439	0.0419393	0.0818854	3	0.00499506	12	4.408	3.43422e-06
2	1	0	1	0	370.762	0.0834526	0.0819495	0.0873088	3	0.00502862	12	4.808	7.15491e-06
2	1	0	1	0	371.162	0.123461	0.122017	0.093987	3	0.00506458	12	5.2082	1.1468e-05
2	1	0	1	0	371.562	0.16347	0.162048	0.0999013	3	0.00510303	12	5.6082	1.61888e-05
2	1	0	1	0	371.962	0.203478	0.202026	0.105695	3	0.00514407	12	6.0084	2.1353e-05
2	1	0	1	0	372.362	0.243487	0.241978	0.111851	3	0.00518767	12	6.4084	2.70655e-05
2	1	0	1	0	372.762	0.283496	0.281959	0.118656	3	0.00523385	12	6.8084	3.34562e-05
2	1	0	1	0	373.162	0.323504	0.322081	0.126267	3	0.00528262	12	7.2086	4.06681e-05
2	1	0	1	0	373.562	0.363513	0.362047	0.132826	3	0.00533393	12	7.6086	4.80894e-05
2	1	0	1	0	373.962	0.403522	0.402065	0.137606	3	0.00538783	12	8.0088	5.53267e-05
2	1	0	1	0	374.362	0.44353	0.442031	0.143534	3	0.00544426	12	8.4088	6.34465e-05
2	1	0	1	0	374.763	0.483539	0.482016	0.150488	3	0.00550329	12	8.809	7.25375e-05
2	1	0	1	0	375.163	0.523547	0.522155	0.158252	3	0.00556487	12	9.209	8.26323e-05
2	1	0	1	0	375.563	0.563556	0.562169	0.164004	3	0.00562901	12	9.609	9.21977e-05
2	1	0	1	0	375.963	0.603565	0.602181	0.169227	3	0.00569576	12	10.0092	0.000101906
2	1	0	1	0	376.363	0.643573	0.642135	0.174512	3	0.00576506	12	10.4092	0.00011206
2	1	0	1	0	376.763	0.683582	0.682014	0.181328	3	0.00583696	12	10.8094	0.000123668
2	1	0	1	0	377.163	0.723591	0.722093	0.187681	3	0.00591141	12	11.2094	0.000135523
2	1	0	1	0	377.563	0.763599	0.762202	0.194329	3	0.00598846	12	11.6096	0.000148118
2	1	0	1	0	377.963	0.803608	0.802234	0.200522	3	0.00606804	12	12.0096	0.000160866
2	1	0	1	0	378.363	0.843616	0.84227	0.206287	3	0.00615019	12	12.4096	0.000173749
2	1	0	1	0	378.763	0.883625	0.88213	0.212232	3	0.00623497	12	12.8098	0.000187216
2	1	0	1	0	379.163	0.923634	0.922151	0.219433	3	0.00632228	12	13.2098	0.00020235
2	1	0	1	0	379.564	0.963642	0.962274	0.22694	3	0.00641219	12	13.61	0.000218379
2	1	0	1	0	379.953	0.99745	0.996005	0.231347	3	0.00650216	12	13.9996	0.000230423
2	1	0	1	0	380.353	0.957441	0.956007	0.222952	3	0.00659297	12	14.3996	0.000213144
2	1	0	1	0	380.753	0.917432	0.916019	0.216198	3	0.00668047	12	14.7998	0.000198042
2	1	0	1	0	381.153	0.877424	0.876029	0.207954	3	0.00676471	12	15.1998	0.000182174
2	1	0	1	0	381.554	0.837415	0.835913	0.199604	3	0.00684588	12	15.6	0.000166852
2	1	0	1	0	381.954	0.797407	0.79586	0.192752	3	0.00692395	12	16	0.000153403
2	1	0	1	0	382.354	0.757398	0.755915	0.18653	3	0.00699901	12	16.4	0.000141001
2	1	0	1	0	382.754	0.717389	0.715963	0.178457	3	0.00707113	12	16.8002	0.000127768
2	1	0	1	0	383.154	0.677381	0.675961	0.171074	3	0.00714025	12	17.2002	0.000115639
2	1	0	1	0	383.554	0.637372	0.635883	0.163922	3	0.00720648	12	17.6004	0.000104236
2	1	0	1	0	383.954	0.597363	0.595832	0.156909	3	0.00726977	12	18.0004	9.34915e-05
2	1	0	1	0	384.354	0.557355	0.55592	0.149867	3	0.00733018	12	18.4006	8.33141e-05
2	1	0	1	0	384.754	0.517346	0.515931	0.142647	3	0.00738768	12	18.8006	7.35959e-05
2	1	0	1	0	385.154	0.47734	0.475859	0.134417	3	0.00744234	12	19.2007	6.39635e-05
2	1	0	1	0	385.554	0.437329	0.435787	0.126902	3	0.00749415	12	19.6008	5.53022e-05
2	1	0	1	0	385.954	0.39732	0.395751	0.119685	3	0.00754313	12	20.0008	4.73655e-05
2	1	0	1	0	386.355	0.357312	0.355821	0.113792	3	0.00758931	12	20.401	4.04896e-05
2	1	0	1	0	386.755	0.317303	0.315891	0.106758	3	0.00763267	12	20.801	3.37238e-05
2	1	0	1	0	387.155	0.277294	0.275863	0.0986653	3	0.00767325	12	21.2012	2.72181e-05
2	1	0	1	0	387.555	0.237286	0.235758	0.0908631	3	0.00771101	12	21.6012	2.14217e-05
2	1	0	1	0	387.955	0.197277	0.195715	0.0849013	3	0.007746	12	22.0014	1.66164e-05
2	1	0	1	0	388.355	0.157268	0.155734	0.0778143	3	0.00777816	12	22.4014	1.21183e-05
2	1	0	1	0	388.755	0.11726	0.115791	0.071372	3	0.00780749	12	22.8014	8.26422e-06
2	1	0	1	0	389.155	0.0772512	0.0758251	0.0628531	3	0.00783393	12	23.2016	4.76584e-06
2	1	0	1	0	389.555	0.0372426	0.0358436	0.0554964	3	0.00785736	12	23.6016	1.98919e-06
2	1	0	1	0	389.955	-0.00276602	-0.00431518	0.046469	3	0.00787756	12	24.0018	-2.00522e-07
2	1	0	1	0	390.355	-0.0427747	-0.0443572	0.0379385	3	0.00789409	12	24.4018	-1.68285e-06
2	1	0	1	0	390.756	-0.0827833	-0.0843208	0.028108	3	0.0079065	12	24.802	-2.37009e-06
2	1	0	1	0	391.156	-0.122792	-0.124301	0.0173328	3	0.00791451	12	25.202	-2.15449e-06
2	1	0	1	0	391.556	-0.162801	-0.164265	0.00721656	3	0.00791825	12	25.602	-1.18543e-06
2	1	0	1	0	391.956	-0.202809	-0.204336	-0.0018011	3	0.00791833	12	0.16	3.68028e-07
2	0	0	1	0	392.356	-0.242818	-0.244391	-0.00749739	3	0.00791566	12	0.56	1.8323e-06
2	0	0	1	0	392.756	-0.282827	-0.284379	-0.0113824	3	0.00791105	12	0.9602	3.23691e-06
2	0	0	1	0	393.156	-0.322835	-0.324423	-0.0154936	3	0.00790476	12	1.3602	5.02649e-06
2	0	0	1	0	393.556	-0.362844	-0.364366	-0.0201242	3	0.00789676	12	1.7604	7.33258e-06
2	0	0	1	0	393.956	-0.402852	-0.40439	-0.0257862	3	0.00788692	12	2.1604	1.04277e-05
2	0	0	1	0	394.356	-0.442861	-0.444363	-0.0311892	3	0.0078751	12	2.5604	1.38593e-05
2	0	0	1	0	394.756	-0.48287	-0.484422	-0.0369907	3	0.00786131	12	2.9606	1.79191e-05
2	0	0	1	0	395.156	-0.522878	-0.524491	-0.0429395	3	0.00784532	12	3.3606	2.25214e-05
2	0	0	1	0	395.557	-0.562887	-0.564433	-0.0479899	3	0.00782694	12	3.7608	2.70871e-05
2	0	0	1	0	395.957	-0.602896	-0.604492	-0.0545231	3	0.00780611	12	4.1608	3.29588e-05
2	0	0	1	0	396.357	-0.642904	-0.644412	-0.0606728	3	0.00778277	12	4.561	3.90983e-05
2	0	0	1	0	396.757	-0.682913	-0.684436	-0.0673656	3	0.00775689	12	4.961	4.61074e-05
2	0	0	1	0	397.157	-0.722922	-0.724409	-0.0736519	3	0.00772845	12	5.361	5.33541e-05
2	0	0	1	0	397.557	-0.76293	-0.764543	-0.0812249	3	0.00769741	12	5.7612	6.21e-05
2	0	0	1	0	397.957	-0.802939	-0.804502	-0.0874629	3	0.00766378	12	6.1612	7.03641e-05
2	0	0	1	0	398.357	-0.842948	-0.844487	-0.0934842	3	0.00762753	12	6.5614	7.89462e-05
2	0	0	1	0	398.757	-0.882956	-0.884467	-0.0997169	3	0.00758867	12	6.9614	8.81963e-05
2	0	0	1	0	399.157	-0.922965	-0.924448	-0.108083	3	0.00754714	12	7.3616	9.99173e-05
2	0	0	1	0	399.557	-0.962973	-0.964462	-0.114767	3	0.00750293	12	7.7616	0.000110688
2	0	0	1	1	399.943	-0.998481	-1.00002	-0.121042	3	0.00745766	12	8.1472	0.000121045
2	0	0	1	1	400.343	-0.958472	-0.960107	-0.109615	3	0.00741363	12	8.5472	0.000105242
2	0	0	1	1	400.743	-0.918464	-0.920082	-0.100537	3	0.00737341	12	8.9472	9.25026e-05
2	0	0	1	1	401.143	-0.878455	-0.87997	-0.0910799	3	0.00733649	12	9.3474	8.01476e-05
2	0	0	1	1	401.543	-0.838447	-0.839932	-0.0833239	3	0.00730273	12	9.7474	6.99865e-05
2	0	0	1	1	401.943	-0.798438	-0.799917	-0.0762464	3	0.007272	12	10.1476	6.09907e-05
2	0	0	1	1	402.343	-0.758429	-0.759948	-0.0687945	3	0.00724425	12	10.5476	5.22802e-05
2	0	0	1	1	402.744	-0.718421	-0.719971	-0.0607287	3	0.00721942	12	10.9478	4.37229e-05
2	0	0	1	1	403.144	-0.678412	-0.679991	-0.053043	3	0.00719749	12	11.3478	3.60688e-05
2	0	0	1	1	403.544	-0.638403	-0.639975	-0.0455035	3	0.00717844	12	11.7478	2.91211e-05
2	0	0	1	1	403.944	-0.598395	-0.599847	-0.0379443	3	0.00716223	12	12.148	2.27607e-05
2	0	0	1	1	404.344	-0.558386	-0.559895	-0.0311427	3	0.00714889	12	12.548	1.74366e-05
2	0	0	1	1	404.744	-0.518377	-0.519996	-0.0240128	3	0.0071384	12	12.9482	1.24865e-05
2	0	0	1	1	405.144	-0.478369	-0.479972	-0.0163983	3	0.0071308	12	13.3482	7.87072e-06
2	0	0	1	1	405.544	-0.43836	-0.439851	-0.00828903	3	0.00712614	12	13.7484	3.64594e-06
2	0	0	1	1	405.944	-0.398351	-0.39982	-0.00118671	3	0.00712451	12	0.000000000000000E+000	4.7447e-07
2	0	0	1	1	406.344	-0.358343	-0.359829	0.00610242	3	0.00712601	12	0.36	-2.19583e-06
2	0	0	1	1	406.731	-0.319634	-0.321198	0.0173903	4	0.00713052	12	0.7472	-5.58572e-06
2	0	0	1	1	407.131	-0.279626	-0.281174	0.0256108	4	0.00713838	12	1.1472	-7.20109e-06
2	1	0	1	1	407.532	-0.239617	-0.241174	0.0355075	4	0.00714952	12	1.5474	-8.5635e-06
2	1	0	1	1	407.932	-0.199609	-0.201167	0.0440012	4	0.0071639	12	1.9474	-8.85159e-06
2	1	0	1	1	408.332	-0.1596	-0.161069	0.0519813	4	0.00718141	12	2.3476	-8.37257e-06
2	1	0	1	1	408.732	-0.119591	-0.121161	0.0589437	4	0.00720189	12	2.7476	-7.14165e-06
2	1	0	1	1	409.132	-0.0795826	-0.0811673	0.0661047	4	0.00722519	12	3.1476	-5.36554e-06
2	1	0	1	1	409.532	-0.039574	-0.0411454	0.0731736	4	0.00725116	12	3.5478	-3.01076e-06
2	1	0	1	1	409.932	0.000436383	-0.00106411	0.0789034	4	0.00727957	12	3.9478	-8.39617e-08
2	1	0	1	1	410.332	0.0404433	0.0390002	0.0830236	4	0.0073102	12	4.348	3.23794e-06
2	1	0	1	1	410.732	0.0804519	0.0790009	0.0877896	4	0.00734298	12	4.748	6.93545e-06
2	1	0	1	1	411.132	0.120461	0.119	0.0932525	4	0.00737809	12	5.1482	1.10971e-05
2	1	0	1	1	411.532	0.160469	0.159009	0.0995675	4	0.00741562	12	5.5482	1.58321e-05
2	1	0	1	1	411.933	0.200478	0.199055	0.105582	4	0.00745567	12	5.9484	2.10167e-05
2	1	0	1	1	412.333	0.240486	0.239077	0.11129	4	0.00749823	12	6.3484	2.66068e-05
2	1	0	1	1	412.733	0.280495	0.279035	0.116287	4	0.00754331	12	6.7484	3.24481e-05
2	1	0	1	1	413.133	0.320504	0.318978	0.122567	4	0.00759094	12	7.1486	3.90961e-05
2	1	0	1	1	413.533	0.360512	0.358987	0.129113	4	0.00764105	12	7.5486	4.63499e-05
2	1	0	1	1	413.933	0.400521	0.399149	0.13545	4	0.00769368	12	7.9488	5.40647e-05
2	1	0	1	1	414.333	0.44053	0.439111	0.141401	4	0.0077488	12	8.3488	6.20907e-05
2	1	0	1	1	414.733	0.480538	0.479049	0.146258	4	0.00780646	12	8.749	7.00647e-05
2	1	0	1	1	415.133	0.520547	0.51904	0.153517	4	0.00786661	12	9.149	7.96816e-05
2	1	0	1	1	415.533	0.560555	0.559089	0.16036	4	0.00792926	12	9.549	8.96558e-05
2	1	0	1	1	415.933	0.600564	0.599141	0.167281	4	0.00799447	12	9.9492	0.000100225
2	1	0	1	1	416.333	0.640573	0.63912	0.172101	4	0.00806216	12	10.3492	0.000109993
2	1	0	1	1	416.734	0.680581	0.679072	0.178033	4	0.0081324	12	10.7494	0.000120898
2	1	0	1	1	417.134	0.72059	0.719052	0.184506	4	0.00820512	12	11.1494	0.00013267
2	1	0	1	1	417.534	0.760599	0.759182	0.192248	4	0.00828038	12	11.5496	0.000145952
2	1	0	1	1	417.934	0.800607	0.799232	0.198332	4	0.00835811	12	11.9496	0.000158513
2	1	0	1	1	418.334	0.840616	0.839274	0.20383	4	0.00843837	12	12.3496	0.00017107
2	1	0	1	1	418.734	0.880624	0.879173	0.209324	4	0.00852118	12	12.7498	0.000184032
2	1	0	1	1	419.134	0.920633	0.919208	0.2164	4	0.00860646	12	13.1498	0.000198917
2	1	0	1	1	419.534	0.960642	0.959295	0.223893	4	0.0086943	12	13.55	0.00021478
2	1	0	0	1	419.928	1	0.998453	0.228035	4	0.00878324	12	13.9441	0.000227682
2	1	0	1	1	420.324	0.960442	0.958992	0.217667	4	0.00887133	12	14.3396	0.000208741
2	1	0	1	1	420.724	0.920433	0.91901	0.21101	4	0.00895716	12	14.7398	0.00019392
2	1	0	1	1	421.124	0.880424	0.879032	0.20337	4	0.0090398	12	15.1398	0.000178769
2	1	0	1	1	421.524	0.840416	0.838971	0.194178	4	0.00911943	12	15.54	0.00016291
2	1	0	1	1	421.924	0.800407	0.798916	0.186861	4	0.00919602	12	15.94	0.000149286
2	1	0	1	1	422.324	0.760399	0.758835	0.179744	4	0.00926966	12	16.34	0.000136396
2	1	0	1	1	422.724	0.72039	0.718959	0.173732	4	0.00934041	12	16.7402	0.000124906
2	1	0	1	1	423.124	0.680381	0.67895	0.165911	4	0.00940823	12	17.1402	0.000112645
2	1	0	1	1	423.525	0.640373	0.638897	0.157557	4	0.0094732	12	17.5404	0.000100663
2	1	0	1	1	423.925	0.600364	0.598846	0.150474	4	0.00953529	12	17.9404	9.0111e-05
2	1	0	1	1	424.325	0.560355	0.558852	0.144747	4	0.00959458	12	18.3406	8.08923e-05
2	1	0	1	1	424.725	0.520347	0.518873	0.13782	4	0.00965102	12	18.7406	7.15113e-05
2	1	0	1	1	425.125	0.480338	0.478831	0.130728	4	0.00970466	12	19.1406	6.25967e-05
2	1	0	1	1	425.525	0.44033	0.438781	0.124073	4	0.00975554	12	19.5408	5.44408e-05
2	1	0	1	1	425.925	0.400321	0.398781	0.117715	4	0.00980363	12	19.9408	4.69427e-05
2	1	0	1	1	426.325	0.360312	0.358889	0.11129	4	0.009849	12	20.341	3.99408e-05
2	1	0	1	1	426.725	0.320304	0.31884	0.104448	4	0.00989159	12	20.741	3.33024e-05
2	1	0	1	1	427.125	0.280295	0.278736	0.0977296	4	0.00993146	12	21.1412	2.72407e-05
2	1	0	1	1	427.525	0.240286	0.238747	0.0917122	4	0.00996858	12	21.5412	2.1896e-05
2	1	0	1	1	427.925	0.200278	0.198728	0.085043	4	0.010003	12	21.9412	1.69004e-05
2	1	0	1	1	428.326	0.160269	0.158835	0.0788931	4	0.0100346	12	22.3414	1.25309e-05
2	1	0	1	1	428.726	0.120261	0.118822	0.071582	4	0.0100635	12	22.7414	8.50553e-06
2	1	0	1	1	429.126	0.0802519	0.0786963	0.0643389	4	0.0100896	12	23.1416	5.06324e-06
2	1	0	1	1	429.526	0.0402432	0.0387201	0.057175	4	0.0101127	12	23.5416	2.21382e-06
2	1	0	1	1	429.926	0.000234626	-0.00117976	0.0500591	4	0.0101327	12	23.9418	-5.90578e-08
2	1	0	1	1	430.326	-0.039774	-0.0413162	0.0406338	4	0.010149	12	24.3418	-1.67884e-06
2	1	0	1	1	430.726	-0.0797827	-0.0813795	0.0294445	4	0.0101614	12	24.742	-2.39618e-06
2	1	0	1	1	431.126	-0.119791	-0.121397	0.0188455	4	0.0101694	12	25.142	-2.28779e-06
2	1	0	1	1	431.526	-0.1598	-0.161404	0.00944749	4	0.0101731	12	25.542	-1.52487e-06
2	1	0	1	1	431.926	-0.199809	-0.201352	0.00177554	4	0.0101731	12	0.18	-3.57508e-07
2	0	0	1	1	432.326	-0.239817	-0.241312	-0.00425758	4	0.0101704	12	0.58	1.02741e-06
2	0	0	1	1	432.727	-0.279826	-0.281395	-0.00989249	4	0.0101658	12	0.9802	2.78369e-06
2	0	0	1	1	433.127	-0.319835	-0.321438	-0.014043	4	0.0101596	12	1.3802	4.51395e-06
2	0	0	1	1	433.527	-0.359843	-0.361337	-0.0179082	4	0.0101517	12	1.7804	6.47087e-06
2	0	0	1	1	433.927	-0.399852	-0.401321	-0.0235535	4	0.010142	12	2.1804	9.45252e-06
2	0	0	1	1	434.327	-0.43986	-0.441344	-0.0292107	4	0.0101305	12	2.5804	1.2892e-05
2	0	0	1	1	434.727	-0.479869	-0.481465	-0.035655	4	0.010117	12	2.9806	1.71666e-05
2	0	0	1	1	435.127	-0.519878	-0.521467	-0.041022	4	0.0101015	12	3.3806	2.13916e-05
2	0	0	1	1	435.527	-0.559886	-0.561401	-0.0464176	4	0.0100836	12	3.7808	2.60589e-05
2	0	0	1	1	435.927	-0.599895	-0.601379	-0.052793	4	0.0100633	12	4.1808	3.17486e-05
2	0	0	1	1	436.327	-0.639904	-0.64146	-0.0603196	4	0.0100405	12	4.581	3.86926e-05
2	0	0	1	1	436.727	-0.679912	-0.681499	-0.0665895	4	0.0100153	12	4.981	4.53807e-05
2	0	0	1	1	437.127	-0.719921	-0.721552	-0.0727306	4	0.00998755	12	5.381	5.24789e-05
2	0	0	1	1	437.528	-0.75993	-0.761435	-0.0778725	4	0.00995725	12	5.7812	5.92948e-05
2	0	0	1	1	437.928	-0.799938	-0.801425	-0.0845394	4	0.00992443	12	6.1812	6.7752e-05
2	0	0	1	1	438.328	-0.839947	-0.841464	-0.0915926	4	0.00988903	12	6.5814	7.70719e-05
2	0	0	1	1	438.728	-0.879956	-0.881571	-0.0982746	4	0.00985107	12	6.9814	8.6636e-05
2	0	0	1	1	439.128	-0.919964	-0.921583	-0.104046	4	0.00981049	12	7.3816	9.58869e-05
2	0	0	1	1	439.528	-0.959973	-0.961539	-0.111072	4	0.00976728	12	7.7816	0.0001068
2	0	0	1	1	439.926	-0.999731	-1.00127	-0.112575	4	0.00972158	12	8.1791	0.000112718
2	0	0	1	0	440.314	-0.961473	-0.962893	-0.106846	4	0.00967938	12	8.5672	0.000102881
2	0	0	1	0	440.714	-0.921465	-0.922932	-0.098619	4	0.00963966	12	8.9672	9.10187e-05
2	0	0	1	0	441.114	-0.881456	-0.882984	-0.0919435	4	0.0096032	12	9.3674	8.11846e-05
2	0	0	1	0	441.514	-0.841447	-0.843055	-0.0843588	4	0.00956983	12	9.7674	7.11191e-05
2	0	0	1	0	441.914	-0.801439	-0.80292	-0.0759575	4	0.00953943	12	10.1676	6.09877e-05
2	0	0	1	0	442.314	-0.76143	-0.762939	-0.0685233	4	0.00951196	12	10.5676	5.22791e-05
2	0	0	1	0	442.714	-0.721421	-0.722911	-0.0618938	4	0.00948734	12	10.9678	4.47437e-05
2	0	0	1	0	443.114	-0.681413	-0.682862	-0.0546461	4	0.00946558	12	11.3678	3.73158e-05
2	0	0	1	0	443.514	-0.641404	-0.642878	-0.0476701	4	0.00944663	12	11.7678	3.0646e-05
2	0	0	1	0	443.914	-0.601395	-0.602936	-0.0412973	4	0.00943047	12	12.168	2.48996e-05
2	0	0	1	0	444.314	-0.561387	-0.562932	-0.0341251	4	0.00941712	12	12.568	1.92101e-05
2	0	0	1	0	444.715	-0.521378	-0.522979	-0.0261552	4	0.00940657	12	12.9682	1.36786e-05
2	0	0	1	0	445.115	-0.481369	-0.482917	-0.0187393	4	0.00939885	12	13.3682	9.04951e-06
2	0	0	1	0	445.515	-0.441361	-0.442862	-0.0110335	4	0.00939401	12	13.7684	4.88632e-06
2	0	0	1	0	445.915	-0.401352	-0.402873	-0.00414631	4	0.00939214	12	14.1684	1.67043e-06
2	0	0	1	0	446.315	-0.361343	-0.3628	0.00326241	4	0.00939335	12	0.33	-1.1836e-06
2	1	0	1	0	446.702	-0.322635	-0.324089	0.0137871	5	0.00939753	12	0.7172	-4.46825e-06
2	1	0	1	0	447.102	-0.282626	-0.284098	0.021536	5	0.00940499	12	1.1172	-6.11834e-06
2	1	0	1	0	447.502	-0.242618	-0.244083	0.0288004	5	0.00941571	12	1.5174	-7.02967e-06
2	1	0	1	0	447.902	-0.202609	-0.204101	0.0365512	5	0.00942963	12	1.9174	-7.46014e-06
2	1	0	1	0	448.302	-0.162601	-0.164162	0.0439676	5	0.00944665	12	2.3176	-7.2178e-06
2	1	0	1	0	448.702	-0.122592	-0.12415	0.051193	5	0.0094666	12	2.7176	-6.35559e-06
2	1	0	1	0	449.102	-0.0825833	-0.0841669	0.0581639	5	0.00948934	12	3.1176	-4.89548e-06
2	1	0	1	0	449.503	-0.0425746	-0.044144	0.0655179	5	0.00951475	12	3.5178	-2.89222e-06
2	1	0	1	0	449.903	-0.00256598	-0.00409448	0.071841	5	0.00954257	12	3.9178	-2.94151e-07
2	1	0	1	0	450.303	0.0374426	0.0359964	0.0773091	5	0.00957257	12	4.318	2.78285e-06
2	1	0	1	0	450.703	0.0774513	0.0759556	0.0829736	5	0.00960465	12	4.718	6.30231e-06
2	1	0	1	0	451.103	0.11746	0.116022	0.0888202	5	0.00963899	12	5.1182	1.03051e-05
2	1	0	1	0	451.503	0.157469	0.155965	0.0948636	5	0.00967569	12	5.5182	1.47954e-05
2	1	0	1	0	451.903	0.197477	0.196009	0.100802	5	0.00971483	12	5.9182	1.9758e-05
2	1	0	1	0	452.303	0.237486	0.235974	0.107701	5	0.00975647	12	6.3184	2.54147e-05
2	1	0	1	0	452.703	0.277494	0.276016	0.114205	5	0.00980056	12	6.7184	3.15223e-05
2	1	0	1	0	453.103	0.317503	0.316061	0.12102	5	0.00984713	12	7.1186	3.82499e-05
2	1	0	1	0	453.503	0.357512	0.356045	0.127027	5	0.00989614	12	7.5186	4.52273e-05
2	1	0	1	0	453.904	0.39752	0.39604	0.133366	5	0.00994764	12	7.9188	5.28182e-05
2	1	0	1	0	454.304	0.437529	0.436086	0.139671	5	0.0100015	12	8.3188	6.09087e-05
2	1	0	1	0	454.704	0.477533	0.475961	0.145188	5	0.0100579	12	8.7189	6.91038e-05
2	1	0	1	0	455.104	0.517546	0.516021	0.151634	5	0.0101168	12	9.119	7.82461e-05
2	1	0	1	0	455.504	0.557555	0.556062	0.158801	5	0.0101781	12	9.519	8.83033e-05
2	1	0	1	0	455.904	0.597563	0.596095	0.165339	5	0.0102419	12	9.9192	9.8558e-05
2	1	0	1	0	456.304	0.637572	0.636172	0.171163	5	0.0103081	12	10.3192	0.000108889
2	1	0	1	0	456.704	0.677581	0.676163	0.176989	5	0.0103768	12	10.7194	0.000119673
2	1	0	1	0	457.104	0.717589	0.716176	0.183791	5	0.0104479	12	11.1194	0.000131627
2	1	0	1	0	457.504	0.757598	0.7561	0.188991	5	0.0105216	12	11.5196	0.000142896
2	1	0	1	0	457.904	0.797607	0.796112	0.195046	5	0.0105976	12	11.9196	0.000155279
2	1	0	1	0	458.304	0.837615	0.836196	0.201136	5	0.0106761	12	12.3196	0.00016819
2	1	0	1	0	458.705	0.877624	0.876238	0.207696	5	0.0107571	12	12.7198	0.000181991
2	1	0	1	0	459.105	0.917632	0.916221	0.213816	5	0.0108405	12	13.1198	0.000195903
2	1	0	1	0	459.505	0.957641	0.956214	0.220628	5	0.0109264	12	13.52	0.000210967
2	1	0	1	0	459.905	0.99765	0.996268	0.226102	5	0.0110147	12	13.92	0.000225258
2	1	0	1	0	460.294	0.963442	0.962097	0.213861	5	0.0111	12	14.3096	0.000205755
2	1	0	1	0	460.695	0.923434	0.922075	0.204702	5	0.0111843	12	14.7098	0.000188751
2	1	0	1	0	461.095	0.883425	0.882058	0.198198	5	0.0112655	12	15.1098	0.000174822
2	1	0	1	0	461.495	0.843416	0.841943	0.189406	5	0.0113437	12	15.51	0.000159469
2	1	0	1	0	461.895	0.803408	0.801872	0.182421	5	0.0114189	12	15.91	0.000146278
2	1	0	1	0	462.295	0.763399	0.76195	0.175461	5	0.0114912	12	16.31	0.000133692
2	1	0	1	0	462.695	0.723391	0.72189	0.167483	5	0.0115607	12	16.7102	0.000120905
2	1	0	1	0	463.095	0.683382	0.681819	0.161161	5	0.0116273	12	17.1102	0.000109883
2	1	0	1	0	463.495	0.643373	0.641848	0.154359	5	0.0116911	12	17.5104	9.90748e-05
2	1	0	1	0	463.895	0.603365	0.601839	0.14699	5	0.0117521	12	17.9104	8.84642e-05
2	1	0	1	0	464.295	0.563356	0.56191	0.141159	5	0.0118104	12	18.3106	7.93183e-05
2	1	0	1	0	464.695	0.523347	0.521873	0.133904	5	0.0118658	12	18.7106	6.98807e-05
2	1	0	1	0	465.095	0.483339	0.48186	0.127035	5	0.0119186	12	19.1106	6.1213e-05
2	1	0	1	0	465.496	0.44333	0.441935	0.120278	5	0.0119686	12	19.5108	5.3155e-05
2	1	0	1	0	465.896	0.403322	0.401913	0.113673	5	0.0120158	12	19.9108	4.56865e-05
2	1	0	1	0	466.296	0.363313	0.361877	0.105631	5	0.0120604	12	20.311	3.82253e-05
2	1	0	1	0	466.696	0.323304	0.321916	0.0984093	5	0.0121023	12	20.711	3.16796e-05
2	1	0	1	0	467.096	0.283296	0.281794	0.0908555	5	0.0121416	12	21.1112	2.56025e-05
2	1	0	1	0	467.496	0.243287	0.241775	0.0846699	5	0.0121781	12	21.5112	2.04711e-05
2	1	0	1	0	467.896	0.203278	0.201738	0.0777537	5	0.012212	12	21.9112	1.56859e-05
2	1	0	1	0	468.296	0.16327	0.16173	0.0715047	5	0.0122432	12	22.3114	1.15645e-05
2	1	0	1	0	468.696	0.123261	0.121697	0.0642416	5	0.0122716	12	22.7114	7.81798e-06
2	1	0	1	0	469.096	0.0832525	0.0818307	0.0580363	5	0.0122974	12	23.1116	4.74915e-06
2	1	0	1	0	469.496	0.0432439	0.0417802	0.050265	5	0.0123202	12	23.5116	2.10008e-06
2	1	0	1	0	469.897	0.00323527	0.00179862	0.0413915	5	0.0123399	12	23.9118	7.44474e-08
2	1	0	1	0	470.297	-0.0367734	-0.0382562	0.031806	5	0.0123562	12	24.3118	-1.21677e-06
2	1	0	1	0	470.697	-0.076782	-0.078295	0.0207154	5	0.0123685	12	24.7118	-1.62191e-06
2	1	0	1	0	471.097	-0.116791	-0.118351	0.00876464	5	0.0123765	12	25.112	-1.0373e-06
2	1	0	1	0	471.497	-0.156799	-0.158364	-0.00150779	5	0.0123802	12	25.512	2.3878e-07
2	1	0	1	0	471.897	-0.196808	-0.198436	-0.00987498	5	0.0123802	12	0.15	1.95955e-06
2	0	0	1	0	472.297	-0.236817	-0.238387	-0.0156323	5	0.0123775	12	0.55	3.72654e-06
2	0	0	1	0	472.697	-0.276825	-0.278401	-0.0189703	5	0.0123729	12	0.9502	5.28136e-06
2	0	0	1	0	473.097	-0.316834	-0.31839	-0.0223384	5	0.0123667	12	1.3502	7.11232e-06
2	0	0	1	0	473.497	-0.356843	-0.358353	-0.0259534	5	0.0123589	12	1.7504	9.30047e-06
2	0	0	1	0	473.897	-0.396851	-0.398344	-0.0301515	5	0.0123495	12	2.1504	1.20107e-05
2	0	0	1	0	474.297	-0.43686	-0.438325	-0.0341614	5	0.0123382	12	2.5504	1.49738e-05
2	0	0	1	0	474.698	-0.476868	-0.478378	-0.0388788	5	0.0123251	12	2.9506	1.85988e-05
2	0	0	1	0	475.098	-0.516877	-0.518434	-0.0440506	5	0.0123099	12	3.3506	2.28373e-05
2	0	0	1	0	475.498	-0.556886	-0.558482	-0.0496003	5	0.0122925	12	3.7508	2.77009e-05
2	0	0	1	0	475.898	-0.596894	-0.598479	-0.055399	5	0.0122727	12	4.1508	3.31551e-05
2	0	0	1	0	476.298	-0.636903	-0.63846	-0.0601349	5	0.0122506	12	4.551	3.83937e-05
2	0	0	1	0	476.698	-0.676912	-0.678461	-0.0661759	5	0.0122259	12	4.951	4.48978e-05
2	0	0	1	0	477.098	-0.71692	-0.718449	-0.0722558	5	0.0121989	12	5.351	5.19121e-05
2	0	0	1	0	477.498	-0.756929	-0.758457	-0.0784401	5	0.0121693	12	5.7512	5.94935e-05
2	0	0	1	0	477.898	-0.796938	-0.798464	-0.0847648	5	0.0121373	12	6.1512	6.76816e-05
2	0	0	1	0	478.298	-0.836946	-0.83854	-0.0916509	5	0.0121027	12	6.5514	7.6853e-05
2	0	0	1	0	478.698	-0.876955	-0.878564	-0.0980416	5	0.0120656	12	6.9514	8.61358e-05
2	0	0	1	0	479.099	-0.916964	-0.918602	-0.103923	5	0.0120259	12	7.3516	9.5464e-05
2	0	0	1	0	479.499	-0.956972	-0.958605	-0.110438	5	0.0119836	12	7.7516	0.000105866
2	0	0	1	0	479.899	-0.996981	-0.998571	-0.11804	5	0.0119386	12	8.1516	0.000117871
2	0	0	1	1	480.284	-0.964474	-0.965951	-0.10252	5	0.0118971	12	8.5372	9.90293e-05
2	0	0	1	1	480.684	-0.924465	-0.925943	-0.0938491	5	0.0118578	12	8.9372	8.6899e-05
2	0	0	1	1	481.084	-0.884457	-0.885954	-0.0869267	5	0.0118218	12	9.3374	7.70131e-05
2	0	0	1	1	481.484	-0.844448	-0.845965	-0.0796401	5	0.0117888	12	9.7374	6.73727e-05
2	0	0	1	1	481.885	-0.804439	-0.805928	-0.07234	5	0.0117587	12	10.1376	5.83008e-05
2	0	0	1	1	482.285	-0.764431	-0.765948	-0.0655819	5	0.0117315	12	10.5376	5.02323e-05
2	0	0	1	1	482.685	-0.724422	-0.725943	-0.0579949	5	0.0117071	12	10.9378	4.2101e-05
2	0	0	1	1	483.085	-0.684413	-0.685955	-0.0505891	5	0.0116855	12	11.3378	3.47019e-05
2	0	0	1	1	483.485	-0.644405	-0.645946	-0.0437101	5	0.0116666	12	11.7378	2.82344e-05
2	0	0	1	1	483.885	-0.604396	-0.605842	-0.0366693	5	0.0116505	12	12.138	2.22158e-05
2	0	0	1	1	484.285	-0.564387	-0.565883	-0.0297207	5	0.0116372	12	12.538	1.68185e-05
2	0	0	1	1	484.685	-0.524379	-0.525928	-0.0232508	5	0.0116266	12	12.9382	1.22283e-05
2	0	0	1	1	485.085	-0.48437	-0.485912	-0.0162764	5	0.0116188	12	13.3382	7.90889e-06
2	0	0	1	1	485.485	-0.444361	-0.445964	-0.00849088	5	0.0116138	12	13.7384	3.78663e-06
2	0	0	1	1	485.885	-0.404353	-0.405933	-0.000936746	5	0.0116117	12	14.1384	3.80256e-07
2	1	0	1	1	486.285	-0.364344	-0.365933	0.00643412	5	0.0116126	12	0.28	-2.35446e-06
2	1	0	1	1	486.673	-0.325636	-0.327181	0.0171534	6	0.0116165	12	0.6672	-5.61227e-06
2	1	0	1	1	487.073	-0.285627	-0.287189	0.025769	6	0.0116236	12	1.0672	-7.40056e-06
2	1	0	1	1	487.473	-0.245618	-0.247114	0.0342094	6	0.011634	12	1.4674	-8.45362e-06
2	1	0	1	1	487.873	-0.20561	-0.207103	0.0421745	6	0.0116475	12	1.8674	-8.73445e-06
2	1	0	1	1	488.273	-0.165601	-0.167054	0.0487606	6	0.011664	12	2.2676	-8.14567e-06
2	1	0	1	1	488.673	-0.125593	-0.127028	0.056132	6	0.0116835	12	2.6676	-7.13035e-06
2	1	0	1	1	489.073	-0.0855839	-0.0870105	0.0625267	6	0.0117057	12	3.0676	-5.44048e-06
2	1	0	1	1	489.473	-0.0455753	-0.0471213	0.0673195	6	0.0117306	12	3.4678	-3.17218e-06
2	1	0	1	1	489.873	-0.00556663	-0.00710893	0.0726167	6	0.0117579	12	3.8678	-5.16227e-07
2	1	0	1	1	490.273	0.034442	0.032948	0.0767036	6	0.0117874	12	4.268	2.52723e-06
2	1	0	1	1	490.673	0.0744506	0.0729635	0.08184	6	0.0118188	12	4.668	5.97133e-06
2	1	0	1	1	491.074	0.114459	0.112985	0.087521	6	0.0118525	12	5.0682	9.88859e-06
2	1	0	1	1	491.474	0.154468	0.153011	0.0932814	6	0.0118884	12	5.4682	1.42731e-05
2	1	0	1	1	491.874	0.194477	0.19306	0.0997417	6	0.0119267	12	5.8682	1.92561e-05
2	1	0	1	1	492.274	0.234485	0.233049	0.105419	6	0.0119675	12	6.2684	2.45678e-05
2	1	0	1	1	492.674	0.274494	0.273026	0.111414	6	0.0120106	12	6.6684	3.04189e-05
2	1	0	1	1	493.074	0.314502	0.313042	0.117458	6	0.0120563	12	7.0686	3.67694e-05
2	1	0	1	1	493.474	0.354511	0.353095	0.123361	6	0.0121043	12	7.4686	4.35582e-05
2	1	0	1	1	493.874	0.39452	0.393061	0.129115	6	0.0121547	12	7.8688	5.07503e-05
2	1	0	1	1	494.274	0.434528	0.433103	0.135187	6	0.0122075	12	8.2688	5.85501e-05
2	1	0	1	1	494.674	0.474537	0.473098	0.141004	6	0.0122627	12	8.6688	6.67089e-05
2	1	0	1	1	495.074	0.514545	0.513121	0.146748	6	0.0123204	12	9.069	7.52995e-05
2	1	0	1	1	495.474	0.554554	0.553116	0.152902	6	0.0123804	12	9.469	8.45727e-05
2	1	0	1	1	495.875	0.594563	0.593049	0.159142	6	0.0124429	12	9.8692	9.43792e-05
2	1	0	1	1	496.275	0.634571	0.633084	0.164878	6	0.0125077	12	10.2692	0.000104382
2	1	0	1	1	496.675	0.67458	0.673125	0.170637	6	0.012575	12	10.6694	0.00011486
2	1	0	1	1	497.075	0.714589	0.71308	0.176937	6	0.0126447	12	11.0694	0.00012617
2	1	0	1	1	497.475	0.754597	0.753139	0.183106	6	0.0127168	12	11.4694	0.000137904
2	1	0	1	1	497.875	0.794606	0.79313	0.18901	6	0.0127913	12	11.8696	0.00014991
2	1	0	1	1	498.275	0.834615	0.833188	0.195283	6	0.0128681	12	12.2696	0.000162707
2	1	0	1	1	498.675	0.874623	0.873208	0.202018	6	0.0129474	12	12.6698	0.000176404
2	1	0	1	1	499.075	0.914632	0.9132	0.207126	6	0.0130291	12	13.0698	0.000189147
2	1	0	1	1	499.475	0.95464	0.953334	0.213411	6	0.0131132	12	13.47	0.000203452
2	1	0	1	1	499.875	0.994649	0.993332	0.219325	6	0.0131996	12	13.87	0.000217863
2	1	0	1	1	500.265	0.966443	0.964992	0.21102	6	0.0132835	12	14.2596	0.000203633
2	1	0	1	1	500.665	0.926434	0.924979	0.202958	6	0.0133664	12	14.6598	0.000187732
2	1	0	1	1	501.065	0.886426	0.885034	0.19518	6	0.0134462	12	15.0598	0.000172741
2	1	0	1	1	501.465	0.846417	0.845	0.187932	6	0.0135231	12	15.46	0.000158803
2	1	0	1	1	501.865	0.806408	0.804927	0.181324	6	0.013597	12	15.86	0.000145953
2	1	0	1	1	502.265	0.7664	0.764881	0.173867	6	0.0136681	12	16.26	0.000132987
2	1	0	1	1	502.666	0.726391	0.724919	0.166972	6	0.0137364	12	16.6602	0.000121041
2	1	0	1	1	503.066	0.686383	0.684834	0.15987	6	0.0138018	12	17.0602	0.000109484
2	1	0	1	1	503.466	0.646374	0.64485	0.153106	6	0.0138646	12	17.4604	9.87303e-05
2	1	0	1	1	503.866	0.606365	0.604794	0.145653	6	0.0139245	12	17.8604	8.80904e-05
2	1	0	1	1	504.266	0.566357	0.564877	0.139344	6	0.0139818	12	18.2606	7.87122e-05
2	1	0	1	1	504.666	0.526348	0.524876	0.133019	6	0.0140363	12	18.6606	6.98185e-05
2	1	0	1	1	505.066	0.486339	0.484879	0.126294	6	0.0140881	12	19.0606	6.12372e-05
2	1	0	1	1	505.466	0.446331	0.44486	0.119691	6	0.0141373	12	19.4608	5.32455e-05
2	1	0	1	1	505.866	0.406322	0.40486	0.113198	6	0.0141838	12	19.8608	4.58295e-05
2	1	0	1	1	506.266	0.366314	0.364836	0.10591	6	0.0142277	12	20.261	3.86396e-05
2	1	0	1	1	506.666	0.326305	0.32484	0.099277	6	0.0142689	12	20.661	3.22491e-05
2	1	0	1	1	507.067	0.286296	0.284801	0.092353	6	0.0143075	12	21.0612	2.63022e-05
2	1	0	1	1	507.467	0.246288	0.244813	0.0857596	6	0.0143435	12	21.4612	2.0995e-05
2	1	0	1	1	507.867	0.206279	0.204762	0.0795786	6	0.0143769	12	21.8612	1.62947e-05
2	1	0	1	1	508.267	0.16627	0.164715	0.0733118	6	0.0144076	12	22.2614	1.20755e-05
2	1	0	1	1	508.667	0.126262	0.124739	0.066458	6	0.0144357	12	22.6614	8.28988e-06
2	1	0	1	1	509.067	0.0862532	0.0848239	0.0603004	6	0.0144611	12	23.0616	5.11491e-06
2	1	0	1	1	509.467	0.0462445	0.0447458	0.05293	6	0.0144836	12	23.4616	2.3684e-06
2	1	0	1	1	509.867	0.00623592	0.00477911	0.0444148	6	0.0145032	12	23.8618	2.12263e-07
2	1	0	1	1	510.267	-0.0337727	-0.0353064	0.0348965	6	0.0145193	12	24.2618	-1.23207e-06
2	1	0	1	1	510.667	-0.0737814	-0.0753007	0.0241337	6	0.0145316	12	24.6618	-1.81728e-06
2	1	0	1	1	511.067	-0.11379	-0.115388	0.0124506	6	0.0145396	12	25.062	-1.43666e-06
2	1	0	1	1	511.467	-0.153799	-0.155335	0.00196376	6	0.0145433	12	25.462	-3.05041e-07
2	0	0	1	1	511.868	-0.193807	-0.195417	-0.00646958	6	0.0145433	12	0.17	1.26427e-06
2	0	0	1	1	512.268	-0.233816	-0.235438	-0.0122577	6	0.0145406	12	0.57	2.88593e-06
2	0	0	1	1	512.668	-0.273825	-0.27543	-0.0155612	6	0.0145359	12	0.9702	4.28602e-06
2	0	0	1	1	513.068	-0.313833	-0.315411	-0.0190396	6	0.0145298	12	1.3702	6.00531e-06
2	0	0	1	1	513.468	-0.353842	-0.355424	-0.0226085	6	0.0145221	12	1.7702	8.03561e-06
2	0	0	1	1	513.868	-0.393851	-0.395336	-0.0262594	6	0.0145129	12	2.1704	1.03813e-05
2	0	0	1	1	514.268	-0.433859	-0.435325	-0.0304011	6	0.0145019	12	2.5704	1.32344e-05
2	0	0	1	1	514.668	-0.473868	-0.475428	-0.0352191	6	0.0144891	12	2.9706	1.67441e-05
2	0	0	1	1	515.068	-0.513876	-0.515399	-0.040544	6	0.0144743	12	3.3706	2.08964e-05
2	0	0	1	1	515.468	-0.553885	-0.55542	-0.0464799	6	0.0144574	12	3.7708	2.58159e-05
2	0	0	1	1	515.868	-0.593894	-0.595439	-0.052024	6	0.0144381	12	4.1708	3.09771e-05
2	0	0	1	1	516.269	-0.633898	-0.635452	-0.057858	6	0.0144165	12	4.5709	3.6766e-05
2	0	0	1	1	516.669	-0.673911	-0.675489	-0.0634251	6	0.0143925	12	4.971	4.2843e-05
2	0	0	1	1	517.069	-0.71392	-0.715473	-0.0695874	6	0.014366	12	5.371	4.97879e-05
2	0	0	1	1	517.469	-0.753928	-0.755395	-0.0750765	6	0.0143372	12	5.7712	5.67124e-05
2	0	0	1	1	517.869	-0.793937	-0.795387	-0.0810367	6	0.0143059	12	6.1712	6.44556e-05
2	0	0	1	1	518.269	-0.833946	-0.835494	-0.0879779	6	0.014272	12	6.5714	7.3505e-05
2	0	0	1	1	518.669	-0.873954	-0.875553	-0.0941665	6	0.0142358	12	6.9714	8.24478e-05
2	0	0	1	1	519.069	-0.913963	-0.915609	-0.100025	6	0.014197	12	7.3716	9.15841e-05
2	0	0	1	1	519.469	-0.953972	-0.955585	-0.106301	6	0.0141556	12	7.7716	0.00010158
2	0	0	1	1	519.869	-0.99398	-0.995589	-0.113603	6	0.0141116	12	8.1716	0.000113102
2	0	0	1	0	520.255	-0.967474	-0.96895	-0.0963766	6	0.0140704	12	8.5572	9.33841e-05
2	0	0	1	0	520.655	-0.927466	-0.928996	-0.0882225	6	0.0140316	12	8.9572	8.19584e-05
2	0	0	1	0	521.055	-0.887457	-0.888925	-0.0815604	6	0.0139959	12	9.3574	7.25011e-05
2	0	0	1	0	521.455	-0.847448	-0.848909	-0.0742084	6	0.0139633	12	9.7574	6.29962e-05
2	0	0	1	0	521.855	-0.80744	-0.808911	-0.0679114	6	0.0139335	12	10.1576	5.49343e-05
2	0	0	1	0	522.255	-0.767431	-0.768957	-0.0611218	6	0.0139066	12	10.5576	4.70001e-05
2	0	0	1	0	522.655	-0.727423	-0.728923	-0.05432	6	0.0138824	12	10.9576	3.95951e-05
2	0	0	1	0	523.055	-0.687414	-0.688967	-0.047266	6	0.0138609	12	11.3578	3.25647e-05
2	0	0	1	0	523.455	-0.647405	-0.648921	-0.0403956	6	0.0138421	12	11.7578	2.62136e-05
2	0	0	1	0	523.856	-0.607397	-0.608874	-0.0336963	6	0.0138261	12	12.158	2.05168e-05
2	0	0	1	0	524.256	-0.567388	-0.568902	-0.0268374	6	0.0138128	12	12.558	1.52678e-05
2	0	0	1	0	524.656	-0.527379	-0.528814	-0.0204018	6	0.0138021	12	12.9582	1.07888e-05
2	0	0	1	0	525.056	-0.487371	-0.488841	-0.014339	6	0.0137942	12	13.3582	7.00948e-06
2	1	0	1	0	525.456	-0.447362	-0.448886	-0.00767518	6	0.0137891	12	13.7584	3.44528e-06
2	1	0	1	0	525.856	-0.407353	-0.408822	1.19878e-05	6	0.0137868	12	14.1584	-4.90088e-09
2	1	0	1	0	526.256	-0.367345	-0.368941	0.00789233	6	0.0137875	12	0.25	-2.91181e-06
2	1	0	1	0	526.367	-0.356292	-0.357631	0.00612135	6	0.0137882	12	0.3605	-2.18919e-06