File: resorufin_10x_frittedTiCt_FTOWE_AgAgClref_N2sparge_3_16_CV_C12/resorufin_10x_frittedTiCt_FTOWE_AgAgClref_N2sparge_3_06_CV_C12.txt
EC-Lab ASCII FILE
Nb header lines : 59

Cyclic Voltammetry

Run on channel : 12 (SN 15159)
User :
CE vs. WE compliance from -10 V to 10 V
Electrode connection : standard
Potential control : Ewe
Ewe ctrl range : min = -2.50 V, max = 2.50 V
Safety Limits :
	Do not start on E overload
Acquisition started on : 06/27/2024 22:37:21.030
Technique started on : 06/27/2024 22:39:37.290
Loaded Setting File :  NONE
Saved on :
	File : resorufin_10x_frittedTiCt_FTOWE_AgAgClref_N2sparge_3_06_CV_C12.mpr
	Directory : C:\Users\user\OneDrive - California Institute of Technology\Desktop\Big James\06272024_resorufin_spEC_test\
	Host : 10.8.34.190
Device : VMP3 (SN 1026)
Address : 131.215.231.69
EC-Lab for windows v11.50 (software)
Internet server v11.52 (firmware)
Command interpretor v11.50 (firmware)
Electrode material : Au/Pd
Initial state :
Electrolyte : NaCl (0.2M)
Comments : Fe(CN)63-/Fe(CN)64- 5.10-3 M
Reference electrode : SCE Saturated Calomel Electrode (0.241 V)
Electrode surface area : 0.001 cm²
Characteristic mass : 0.001 g
Equivalent Weight : 0.000 g/eq.
Density : 0.000 g/cm3
Volume (V) : 0.001 cm³
Cycle Definition : Charge/Discharge alternance
Ei (V)              0.000
vs.                 Eoc
dE/dt               200.000
dE/dt unit          mV/s
E1 (V)              1.000
vs.                 Ref
Step percent        50
N                   10
E range min (V)     -2.500
E range max (V)     2.500
I Range             Auto
I Range min         Unset
I Range max         Unset
I Range init        Unset
Bandwidth           5
E2 (V)              -1.000
vs.                 Ref
nc cycles           5
Reverse Scan        1
Ef (V)              0.000
vs.                 Eoc

mode	ox/red	error	control changes	counter inc.	time/s	control/V	Ewe/V	<I>/mA	cycle number	(Q-Qo)/C	I Range	step time/s	P/W
2	1	0	0	0	136.26	-0.361894	-0.363972	0.00468535	1	0.0000000E+000	14	0.000000000000000E+000	-1.70534e-06
2	1	0	1	0	136.488	-0.316334	-0.317902	0.0116988	1	2.88327e-06	13	0.2101	-3.71908e-06
2	1	0	1	0	136.688	-0.276325	-0.277834	0.0217228	1	7.53733e-06	13	0.4101	-6.03535e-06
2	1	0	1	0	136.888	-0.236316	-0.237836	0.0324518	1	1.42947e-05	13	0.6102	-7.71823e-06
2	1	0	1	0	137.088	-0.196308	-0.197841	0.042676	1	2.31541e-05	13	0.8102	-8.44309e-06
2	1	0	1	0	137.288	-0.156299	-0.157992	0.0520446	1	3.40587e-05	13	1.0103	-8.22264e-06
2	1	0	1	0	137.488	-0.116291	-0.117934	0.0615188	1	4.68705e-05	13	1.2103	-7.25513e-06
2	1	0	1	0	137.688	-0.0762819	-0.077894	0.0713542	1	6.14606e-05	13	1.4104	-5.55807e-06
2	1	0	1	0	137.888	-0.0362733	-0.037885	0.079396	1	7.76313e-05	13	1.6104	-3.00792e-06
2	1	0	1	0	138.118	0.00973668	0.00830673	0.0873969	1	9.85139e-05	12	1.8405	7.25982e-07
2	1	0	1	0	138.318	0.0497453	0.0482961	0.0935813	1	0.000117483	12	2.0405	4.51961e-06
2	1	0	1	0	138.518	0.0897539	0.0883366	0.0998518	1	0.000137631	12	2.2405	8.82057e-06
2	1	0	1	0	138.718	0.129763	0.128309	0.106476	1	0.000159077	12	2.4406	1.36618e-05
2	1	0	1	0	138.918	0.169771	0.168354	0.113903	1	0.000181895	12	2.6406	1.91761e-05
2	1	0	1	0	139.119	0.20978	0.208268	0.121766	1	0.000206167	12	2.8407	2.536e-05
2	1	0	1	0	139.319	0.249788	0.248282	0.129065	1	0.000231904	12	3.0407	3.20445e-05
2	1	0	1	0	139.519	0.289797	0.288302	0.136669	1	0.000259139	12	3.2408	3.9402e-05
2	1	0	1	0	139.719	0.329806	0.32834	0.144186	1	0.000287834	12	3.4408	4.73419e-05
2	1	0	1	0	139.919	0.369814	0.368292	0.151721	1	0.000318018	12	3.6408	5.58777e-05
2	1	0	1	0	140.119	0.409823	0.40838	0.159093	1	0.000349671	12	3.8409	6.49703e-05
2	1	0	1	0	140.319	0.449832	0.448356	0.166813	1	0.000382793	12	4.0409	7.47916e-05
2	1	0	1	0	140.519	0.48984	0.488336	0.174997	1	0.0004174	12	4.241	8.54574e-05
2	1	0	1	0	140.719	0.529849	0.528366	0.18265	1	0.000453465	12	4.441	9.65059e-05
2	1	0	1	0	140.919	0.569857	0.568403	0.189318	1	0.000491034	12	4.6411	0.000107609
2	1	0	1	0	141.119	0.609866	0.608358	0.196557	1	0.000530055	12	4.8411	0.000119577
2	1	0	1	0	141.319	0.649875	0.648418	0.204045	1	0.000570569	12	5.0411	0.000132307
2	1	0	1	0	141.519	0.689883	0.688454	0.211498	1	0.000612589	12	5.2412	0.000145606
2	1	0	1	0	141.719	0.729892	0.728436	0.218806	1	0.000656065	12	5.4412	0.000159386
2	1	0	1	0	141.919	0.769901	0.76845	0.227139	1	0.000701056	12	5.6413	0.000174545
2	1	0	1	0	142.119	0.809909	0.808427	0.234217	1	0.000747511	12	5.8413	0.000189347
2	1	0	1	0	142.319	0.849918	0.848514	0.241427	1	0.000795497	12	6.0414	0.000204854
2	1	0	1	0	142.519	0.889926	0.888466	0.24832	1	0.000844965	12	6.2414	0.000220623
2	1	0	1	0	142.719	0.929935	0.928511	0.255597	1	0.000895932	12	6.4414	0.000237325
2	1	0	1	0	142.919	0.969944	0.968588	0.264028	1	0.000948445	12	6.6415	0.000255734
2	1	0	1	0	143.108	0.992349	0.990976	0.268099	1	0.000999119	12	6.83	0.000265679
2	1	0	1	0	143.308	0.95234	0.950904	0.257655	1	0.00105138	12	7.03	0.000245005
2	1	0	1	0	143.508	0.912331	0.910929	0.248096	1	0.00110175	12	7.2301	0.000225997
2	1	0	1	0	143.708	0.872323	0.87089	0.238656	1	0.00115026	12	7.4301	0.000207843
2	1	0	1	0	143.908	0.832314	0.830924	0.229044	1	0.00119701	12	7.6302	0.000190318
2	1	0	1	0	144.108	0.792305	0.790868	0.220811	1	0.00124197	12	7.8302	0.000174633
2	1	0	1	0	144.308	0.752297	0.750855	0.212101	1	0.00128521	12	8.0302	0.000159257
2	1	0	1	0	144.508	0.712288	0.71079	0.203776	1	0.00132676	12	8.2303	0.000144842
2	1	0	1	0	144.708	0.67228	0.6708	0.195668	1	0.00136659	12	8.4303	0.000131254
2	1	0	1	0	144.908	0.632271	0.630737	0.187896	1	0.00140474	12	8.6304	0.000118513
2	1	0	1	0	145.108	0.592262	0.590735	0.17887	1	0.0014412	12	8.8304	0.000105664
2	1	0	1	0	145.308	0.552254	0.550742	0.170863	1	0.00147598	12	9.0305	9.41016e-05
2	1	0	1	0	145.508	0.512245	0.510745	0.163086	1	0.00150911	12	9.2305	8.32952e-05
2	1	0	1	0	145.708	0.472219	0.470749	0.154852	1	0.00154058	12	9.4306	7.28964e-05
2	1	0	1	0	145.908	0.432228	0.430745	0.147478	1	0.00157038	12	9.6306	6.35254e-05
2	1	0	1	0	146.108	0.392219	0.390731	0.139177	1	0.00159854	12	9.8306	5.43808e-05
2	1	0	1	0	146.309	0.352211	0.35066	0.131291	1	0.00162508	12	10.0307	4.60385e-05
2	1	0	1	0	146.509	0.312202	0.310682	0.123386	1	0.00164998	12	10.2307	3.83337e-05
2	1	0	1	0	146.709	0.272193	0.270722	0.115631	1	0.00167325	12	10.4308	3.13038e-05
2	1	0	1	0	146.909	0.232185	0.230694	0.107226	1	0.00169489	12	10.6308	2.47364e-05
2	1	0	1	0	147.109	0.192176	0.190709	0.0991159	1	0.00171489	12	10.8309	1.89023e-05
2	1	0	1	0	147.309	0.152167	0.150696	0.090828	1	0.00173322	12	11.0309	1.36875e-05
2	1	0	1	0	147.509	0.112159	0.110684	0.0826881	1	0.00174986	12	11.2309	9.15223e-06
2	1	0	1	0	147.709	0.0721501	0.0706752	0.0744611	1	0.00176476	12	11.431	5.26255e-06
2	1	0	1	0	147.909	0.0321415	0.030684	0.0650886	1	0.00177779	12	11.631	1.99718e-06
2	1	0	1	0	148.109	-0.00786713	-0.00941494	0.0544842	1	0.00178877	12	11.8311	-5.12965e-07
2	1	0	1	0	148.309	-0.0478758	-0.0494221	0.0425876	1	0.00179737	12	12.0311	-2.10477e-06
2	1	0	1	0	148.509	-0.0878844	-0.0894253	0.0286188	1	0.0018033	12	12.2312	-2.55924e-06
2	1	0	1	0	148.709	-0.127893	-0.129413	0.0154156	1	0.00180643	12	12.4312	-1.99497e-06
2	1	0	1	0	148.909	-0.167902	-0.169428	0.00351434	1	0.00180694	12	0.01	-5.95427e-07
2	0	0	1	0	149.109	-0.20791	-0.209514	-0.00582572	1	0.00180521	12	0.2101	1.22057e-06
2	0	0	1	0	149.309	-0.247919	-0.249496	-0.0120831	1	0.00180183	12	0.4101	3.01468e-06
2	0	0	1	0	149.509	-0.287928	-0.289468	-0.0164603	1	0.00179741	12	0.6102	4.76474e-06
2	0	0	1	0	149.709	-0.327936	-0.329479	-0.0203456	1	0.00179226	12	0.8102	6.70343e-06
2	0	0	1	0	149.909	-0.367945	-0.369455	-0.0246146	1	0.00178635	12	1.0103	9.094e-06
2	0	0	1	0	150.109	-0.407954	-0.409531	-0.0307591	1	0.00177946	12	1.2103	1.25968e-05
2	0	0	1	0	150.309	-0.447962	-0.44946	-0.0371437	1	0.00177143	12	1.4103	1.66946e-05
2	0	0	1	0	150.509	-0.487971	-0.489496	-0.0425509	1	0.00176234	12	1.6104	2.08285e-05
2	0	0	1	0	150.709	-0.527979	-0.529484	-0.0490522	1	0.00175214	12	1.8104	2.59724e-05
2	0	0	1	0	150.91	-0.567988	-0.569504	-0.0559379	1	0.00174066	12	2.0105	3.18569e-05
2	0	0	1	0	151.11	-0.607997	-0.609505	-0.0629761	1	0.00172782	12	2.2105	3.83843e-05
2	0	0	1	0	151.31	-0.648005	-0.649562	-0.0708656	1	0.00171356	12	2.4106	4.60316e-05
2	0	0	1	0	151.51	-0.688014	-0.689488	-0.0778637	1	0.00169786	12	2.6106	5.36861e-05
2	0	0	1	0	151.71	-0.728023	-0.72955	-0.0854144	1	0.0016807	12	2.8106	6.2314e-05
2	0	0	1	0	151.91	-0.768031	-0.76952	-0.092338	1	0.00166204	12	3.0107	7.1056e-05
2	0	0	1	0	152.11	-0.80804	-0.809511	-0.0999322	1	0.00164187	12	3.2107	8.08962e-05
2	0	0	1	0	152.31	-0.848049	-0.849598	-0.10818	1	0.00162015	12	3.4108	9.19096e-05
2	0	0	1	0	152.51	-0.888057	-0.8896	-0.11627	1	0.00159691	12	3.6108	0.000103434
2	0	0	1	0	152.71	-0.928066	-0.929583	-0.123969	1	0.00157205	12	3.8109	0.00011524
2	0	0	1	0	152.91	-0.968075	-0.969657	-0.132336	1	0.00154556	12	4.0109	0.00012832
2	0	0	1	1	153.102	-0.99348	-0.995018	-0.135273	1	0.00151872	12	4.2034	0.000134599
2	0	0	1	1	153.302	-0.953471	-0.955021	-0.122047	1	0.00149359	12	4.4034	0.000116558
2	0	0	1	1	153.503	-0.913463	-0.915057	-0.11113	1	0.00147074	12	4.6035	0.000101691
2	0	0	1	1	153.703	-0.873454	-0.875005	-0.10199	1	0.00144985	12	4.8035	8.92422e-05
2	0	0	1	1	153.903	-0.833445	-0.834991	-0.0929215	1	0.00143076	12	5.0035	7.75886e-05
2	0	0	1	1	154.103	-0.793437	-0.794932	-0.0843093	1	0.00141343	12	5.2036	6.70202e-05
2	0	0	1	1	154.303	-0.753428	-0.754946	-0.0755268	1	0.00139781	12	5.4036	5.70186e-05
2	0	0	1	1	154.503	-0.71342	-0.714947	-0.0668266	1	0.00138388	12	5.6037	4.77775e-05
2	0	0	1	1	154.703	-0.673411	-0.674942	-0.0583453	1	0.00137162	12	5.8037	3.93797e-05
2	0	0	1	1	154.903	-0.633402	-0.634942	-0.0494723	1	0.00136102	12	6.0038	3.1412e-05
2	0	0	1	1	155.103	-0.593394	-0.594921	-0.0411765	1	0.00135208	12	6.2038	2.44968e-05
2	0	0	1	1	155.303	-0.553385	-0.554945	-0.0327849	1	0.0013448	12	6.4038	1.81938e-05
2	0	0	1	1	155.503	-0.513376	-0.514907	-0.023731	1	0.0013392	12	6.6039	1.22192e-05
2	0	0	1	1	155.703	-0.473368	-0.474947	-0.0153078	1	0.0013353	12	6.8039	7.2704e-06
2	0	0	1	1	155.903	-0.433359	-0.434903	-0.00599	1	0.00133317	12	7.004	2.60507e-06
2	0	0	1	1	156.103	-0.39335	-0.394927	0.0031433	1	0.00133288	12	0.015	-1.24138e-06
2	1	0	1	1	156.298	-0.354342	-0.355878	0.0104049	2	0.00133446	12	0.2101	-3.70288e-06
2	1	0	1	1	156.498	-0.314333	-0.315831	0.0201301	2	0.00133801	12	0.4101	-6.35771e-06
2	1	0	1	1	156.698	-0.274325	-0.275866	0.0298781	2	0.00134356	12	0.6101	-8.24234e-06
2	1	0	1	1	156.898	-0.234316	-0.235815	0.03936	2	0.00135113	12	0.8102	-9.28167e-06
2	1	0	1	1	157.098	-0.194307	-0.195783	0.0489903	2	0.00136071	12	1.0102	-9.59149e-06
2	1	0	1	1	157.298	-0.154299	-0.155763	0.0582912	2	0.00137221	12	1.2103	-9.07961e-06
2	1	0	1	1	157.498	-0.11429	-0.115719	0.0671122	2	0.00138552	12	1.4103	-7.76618e-06
2	1	0	1	1	157.698	-0.0742815	-0.0757844	0.0744456	2	0.0014005	12	1.6104	-5.64182e-06
2	1	0	1	1	157.898	-0.0342728	-0.0358336	0.0815405	2	0.00141697	12	1.8104	-2.92189e-06
2	1	0	1	1	158.098	0.00573581	0.00424813	0.0875309	2	0.00143471	12	2.0104	3.71842e-07
2	1	0	1	1	158.299	0.0457444	0.0443052	0.0928672	2	0.00145354	12	2.2105	4.1145e-06
2	1	0	1	1	158.499	0.0857531	0.0843193	0.0986926	2	0.00147344	12	2.4105	8.32169e-06
2	1	0	1	1	158.699	0.125762	0.124294	0.104712	2	0.00149454	12	2.6106	1.30151e-05
2	1	0	1	1	158.899	0.16577	0.16434	0.111637	2	0.00151694	12	2.8106	1.83463e-05
2	1	0	1	1	159.099	0.205779	0.204296	0.119345	2	0.00154074	12	3.0107	2.43817e-05
2	1	0	1	1	159.299	0.245788	0.244311	0.1265	2	0.00156596	12	3.2107	3.09053e-05
2	1	0	1	1	159.499	0.285796	0.284308	0.133947	2	0.0015926	12	3.4107	3.80823e-05
2	1	0	1	1	159.699	0.325805	0.324336	0.140857	2	0.0016207	12	3.6108	4.56849e-05
2	1	0	1	1	159.899	0.365813	0.364347	0.148424	2	0.00165022	12	3.8108	5.4078e-05
2	1	0	1	1	160.099	0.405822	0.404368	0.155545	2	0.0016812	12	4.0109	6.28976e-05
2	1	0	1	1	160.299	0.445831	0.444343	0.162562	2	0.00171359	12	4.2109	7.22331e-05
2	1	0	1	1	160.499	0.485839	0.484316	0.170209	2	0.00174743	12	4.411	8.24349e-05
2	1	0	1	1	160.699	0.525848	0.524377	0.177475	2	0.0017827	12	4.611	9.30636e-05
2	1	0	1	1	160.899	0.565857	0.564429	0.184493	2	0.00181943	12	4.8111	0.000104133
2	1	0	1	1	161.099	0.605865	0.604427	0.192064	2	0.00185759	12	5.0111	0.000116089
2	1	0	1	1	161.299	0.645874	0.644441	0.199501	2	0.0018972	12	5.2111	0.000128567
2	1	0	1	1	161.499	0.685882	0.684374	0.207601	2	0.00193827	12	5.4112	0.000142077
2	1	0	1	1	161.699	0.725891	0.724403	0.214958	2	0.00198081	12	5.6112	0.000155716
2	1	0	1	1	161.899	0.7659	0.764428	0.220831	2	0.00202479	12	5.8113	0.000168809
2	1	0	1	1	162.099	0.805908	0.804471	0.229166	2	0.00207025	12	6.0113	0.000184358
2	1	0	1	1	162.299	0.845917	0.844455	0.235805	2	0.00211718	12	6.2114	0.000199126
2	1	0	1	1	162.499	0.885926	0.884503	0.244398	2	0.00216557	12	6.4114	0.00021617
2	1	0	1	1	162.699	0.925934	0.924541	0.251296	2	0.00221544	12	6.6114	0.000232334
2	1	0	1	1	162.9	0.965943	0.964536	0.258879	2	0.0022668	12	6.8115	0.000249698
2	1	0	1	1	163.088	0.996349	0.99496	0.263781	2	0.00231649	12	7	0.000262451
2	1	0	1	1	163.288	0.956341	0.954983	0.253749	2	0.00236798	12	7.2	0.000242326
2	1	0	1	1	163.488	0.916332	0.91495	0.244473	2	0.00241758	12	7.4001	0.00022368
2	1	0	1	1	163.688	0.876324	0.874954	0.235891	2	0.00246534	12	7.6001	0.000206394
2	1	0	1	1	163.888	0.836315	0.834916	0.227381	2	0.00251137	12	7.8002	0.000189844
2	1	0	1	1	164.088	0.796306	0.794827	0.218854	2	0.00255565	12	8.0002	0.000173951
2	1	0	1	1	164.288	0.756298	0.754862	0.210097	2	0.00259823	12	8.2002	0.000158594
2	1	0	1	1	164.488	0.716289	0.714832	0.2013	2	0.00263915	12	8.4003	0.000143895
2	1	0	1	1	164.688	0.67628	0.674863	0.192611	2	0.00267838	12	8.6003	0.000129986
2	1	0	1	1	164.888	0.636272	0.634794	0.184824	2	0.00271597	12	8.8004	0.000117325
2	1	0	1	1	165.088	0.596263	0.594791	0.176825	2	0.00275189	12	9.0004	0.000105174
2	1	0	1	1	165.289	0.556255	0.554805	0.167927	2	0.00278617	12	9.2005	9.31668e-05
2	1	0	1	1	165.489	0.516246	0.514786	0.159977	2	0.0028188	12	9.4005	8.2354e-05
2	1	0	1	1	165.689	0.476237	0.474807	0.151964	2	0.0028498	12	9.6005	7.21536e-05
2	1	0	1	1	165.889	0.436229	0.434747	0.143828	2	0.0028792	12	9.8006	6.25286e-05
2	1	0	1	1	166.089	0.39622	0.394805	0.135626	2	0.00290696	12	10.0006	5.35459e-05
2	1	0	1	1	166.289	0.356211	0.354781	0.127163	2	0.00293312	12	10.2007	4.51151e-05
2	1	0	1	1	166.489	0.316203	0.314745	0.119293	2	0.00295767	12	10.4007	3.75469e-05
2	1	0	1	1	166.689	0.276194	0.274741	0.111726	2	0.00298063	12	10.6008	3.06957e-05
2	1	0	1	1	166.889	0.236185	0.234773	0.103619	2	0.00300197	12	10.8008	2.43268e-05
2	1	0	1	1	167.089	0.196177	0.194709	0.0956234	2	0.00302169	12	11.0008	1.86188e-05
2	1	0	1	1	167.289	0.156168	0.154681	0.0873222	2	0.0030398	12	11.2009	1.35071e-05
2	1	0	1	1	167.489	0.11616	0.114691	0.0787134	2	0.00305623	12	11.4009	9.02769e-06
2	1	0	1	1	167.689	0.076151	0.074725	0.0703992	2	0.00307096	12	11.601	5.26058e-06
2	1	0	1	1	167.889	0.0361424	0.0347023	0.0612283	2	0.00308386	12	11.801	2.12476e-06
2	1	0	1	1	168.089	-0.00386626	-0.00543975	0.0504921	2	0.00309475	12	12.0011	-2.74664e-07
2	1	0	1	1	168.289	-0.0438749	-0.0454143	0.0384554	2	0.00310328	12	12.2011	-1.74643e-06
2	1	0	1	1	168.489	-0.0838879	-0.0854751	0.0246719	2	0.00310915	12	12.4012	-2.10883e-06
2	1	0	1	1	168.689	-0.123892	-0.125442	0.0107324	2	0.00311216	12	12.6012	-1.3463e-06
2	1	0	1	1	168.889	-0.163901	-0.165426	-0.00178351	2	0.00311246	12	0.025	2.9504e-07
2	0	0	1	1	169.089	-0.203909	-0.205471	-0.0120845	2	0.00311046	12	0.2251	2.48302e-06
2	0	0	1	1	169.289	-0.243918	-0.245468	-0.0186648	2	0.00310677	12	0.4251	4.58161e-06
2	0	0	1	1	169.489	-0.283927	-0.285498	-0.0224693	2	0.00310202	12	0.6252	6.41495e-06
2	0	0	1	1	169.689	-0.323935	-0.325531	-0.0257315	2	0.00309655	12	0.8252	8.37638e-06
2	0	0	1	1	169.89	-0.363944	-0.365504	-0.0294522	2	0.0030904	12	1.0253	1.07649e-05
2	0	0	1	1	170.09	-0.403953	-0.405565	-0.0345837	2	0.00308342	12	1.2253	1.4026e-05
2	0	0	1	1	170.29	-0.443961	-0.445517	-0.0394946	2	0.00307548	12	1.4253	1.75955e-05
2	0	0	1	1	170.49	-0.48397	-0.485533	-0.0441009	2	0.00306657	12	1.6254	2.14124e-05
2	0	0	1	1	170.69	-0.523979	-0.525561	-0.050752	2	0.00305655	12	1.8254	2.66733e-05
2	0	0	1	1	170.89	-0.563987	-0.56554	-0.0574202	2	0.00304525	12	2.0255	3.24734e-05
2	0	0	1	1	171.09	-0.603996	-0.605571	-0.0644432	2	0.00303258	12	2.2255	3.90249e-05
2	0	0	1	1	171.29	-0.644005	-0.645554	-0.0712115	2	0.00301851	12	2.4256	4.59709e-05
2	0	0	1	1	171.49	-0.684013	-0.685594	-0.0781932	2	0.00300301	12	2.6256	5.36088e-05
2	0	0	1	1	171.69	-0.724022	-0.725563	-0.0858072	2	0.00298604	12	2.8256	6.22585e-05
2	0	0	1	1	171.89	-0.764031	-0.765602	-0.0931369	2	0.00296759	12	3.0257	7.13059e-05
2	0	0	1	1	172.09	-0.804039	-0.805581	-0.100436	2	0.00294766	12	3.2257	8.09096e-05
2	0	0	1	1	172.29	-0.844048	-0.845632	-0.107259	2	0.0029262	12	3.4258	9.07014e-05
2	0	0	1	1	172.49	-0.884056	-0.885637	-0.115328	2	0.00290324	12	3.6258	0.000102139
2	0	0	1	1	172.69	-0.924065	-0.925666	-0.122809	2	0.00287871	12	3.8259	0.00011368
2	0	0	1	1	172.89	-0.964074	-0.965679	-0.13086	2	0.00285259	12	4.0259	0.000126369
2	0	0	1	0	173.083	-0.997481	-0.999059	-0.138795	2	0.00282593	12	4.2184	0.000138665
2	0	0	1	0	173.283	-0.957472	-0.959031	-0.124513	2	0.00280076	12	4.4184	0.000119412
2	0	0	1	0	173.483	-0.917464	-0.918979	-0.114139	2	0.0027779	12	4.6184	0.000104891
2	0	0	1	0	173.683	-0.877455	-0.87901	-0.104985	2	0.00275695	12	4.8185	9.22831e-05
2	0	0	1	0	173.883	-0.837446	-0.839005	-0.0960227	2	0.0027378	12	5.0185	8.05635e-05
2	0	0	1	0	174.083	-0.797438	-0.798948	-0.0870964	2	0.00272038	12	5.2186	6.95856e-05
2	0	0	1	0	174.283	-0.757429	-0.759012	-0.0787	2	0.00270466	12	5.4186	5.97342e-05
2	0	0	1	0	174.483	-0.71742	-0.718908	-0.0708451	2	0.00269059	12	5.6187	5.09311e-05
2	0	0	1	0	174.683	-0.677412	-0.678916	-0.0622848	2	0.00267818	12	5.8187	4.22862e-05
2	0	0	1	0	174.883	-0.637403	-0.638925	-0.0535197	2	0.00266739	12	6.0188	3.41951e-05
2	0	0	1	0	175.083	-0.597394	-0.598931	-0.0453245	2	0.00265825	12	6.2188	2.71462e-05
2	0	0	1	0	175.283	-0.557386	-0.558881	-0.0369991	2	0.00265074	12	6.4188	2.06781e-05
2	0	0	1	0	175.483	-0.517377	-0.518904	-0.029447	2	0.00264487	12	6.6189	1.52802e-05
2	0	0	1	0	175.683	-0.477369	-0.478853	-0.0211135	2	0.00264068	12	6.8189	1.01103e-05
2	0	0	1	0	175.883	-0.43736	-0.438888	-0.0123233	2	0.00263823	12	7.019	5.40855e-06
2	1	0	1	0	176.083	-0.397351	-0.398874	-0.00345082	2	0.00263759	12	0.000000000000000E+000	1.37644e-06
2	1	0	1	0	176.278	-0.358343	-0.359831	0.00909791	3	0.00263881	12	0.1551	-3.27371e-06
2	1	0	1	0	176.478	-0.318334	-0.31982	0.0197691	3	0.00264197	12	0.3551	-6.32256e-06
2	1	0	1	0	176.678	-0.278326	-0.279786	0.0303173	3	0.00264713	12	0.5551	-8.48237e-06
2	1	0	1	0	176.878	-0.238317	-0.239797	0.0405352	3	0.0026543	12	0.7552	-9.72022e-06
2	1	0	1	0	177.078	-0.198308	-0.19975	0.0512887	3	0.00266348	12	0.9552	-1.02449e-05
2	1	0	1	0	177.279	-0.1583	-0.159772	0.0596429	3	0.00267459	12	1.1553	-9.52924e-06
2	1	0	1	0	177.479	-0.118291	-0.1198	0.0680787	3	0.00268749	12	1.3553	-8.15586e-06
2	1	0	1	0	177.679	-0.0782823	-0.0797313	0.0762785	3	0.00270208	12	1.5554	-6.08178e-06
2	1	0	1	0	177.879	-0.0382737	-0.0397908	0.0825223	3	0.00271817	12	1.7554	-3.28363e-06
2	1	0	1	0	178.079	0.00173495	0.000306682	0.0876142	3	0.00273553	12	1.9554	2.68697e-08
2	1	0	1	0	178.279	0.0417436	0.0403209	0.0918178	3	0.00275395	12	2.1555	3.70218e-06
2	1	0	1	0	178.479	0.0817522	0.0802577	0.096899	3	0.00277341	12	2.3555	7.77689e-06
2	1	0	1	0	178.679	0.121761	0.120317	0.102868	3	0.00279403	12	2.5556	1.23768e-05
2	1	0	1	0	178.879	0.161769	0.160315	0.109959	3	0.00281591	12	2.7556	1.76281e-05
2	1	0	1	0	179.079	0.201778	0.200293	0.116026	3	0.00283915	12	2.9557	2.32392e-05
2	1	0	1	0	179.279	0.241787	0.240303	0.123424	3	0.00286378	12	3.1557	2.96592e-05
2	1	0	1	0	179.479	0.281795	0.280325	0.130167	3	0.00288982	12	3.3557	3.6489e-05
2	1	0	1	0	179.679	0.321804	0.320293	0.137602	3	0.00291729	12	3.5558	4.40728e-05
2	1	0	1	0	179.879	0.361813	0.360292	0.144617	3	0.00294616	12	3.7558	5.21045e-05
2	1	0	1	0	180.079	0.401821	0.400342	0.152637	3	0.00297646	12	3.9559	6.11071e-05
2	1	0	1	0	180.279	0.44183	0.440347	0.159323	3	0.00300816	12	4.1559	7.01575e-05
2	1	0	1	0	180.479	0.481838	0.480351	0.1668	3	0.00304129	12	4.356	8.01227e-05
2	1	0	1	0	180.679	0.521847	0.52036	0.173766	3	0.00307582	12	4.556	9.04209e-05
2	1	0	1	0	180.879	0.561856	0.56035	0.18046	3	0.00311178	12	4.756	0.000101121
2	1	0	1	0	181.079	0.601864	0.600412	0.188017	3	0.00314917	12	4.9561	0.000112887
2	1	0	1	0	181.279	0.641873	0.640396	0.195242	3	0.00318799	12	5.1561	0.000125032
2	1	0	1	0	181.479	0.681882	0.68041	0.202853	3	0.00322826	12	5.3562	0.000138023
2	1	0	1	0	181.679	0.72189	0.720404	0.210235	3	0.00326995	12	5.5562	0.000151454
2	1	0	1	0	181.88	0.761899	0.760374	0.217548	3	0.00331309	12	5.7563	0.000165418
2	1	0	1	0	182.08	0.801908	0.800434	0.224817	3	0.00335764	12	5.9563	0.000179951
2	1	0	1	0	182.28	0.841929	0.840529	0.232376	3	0.0034037	12	6.1564	0.000195319
2	1	0	1	0	182.48	0.881925	0.880545	0.238253	3	0.00345116	12	6.3564	0.000209792
2	1	0	1	0	182.68	0.921933	0.920562	0.2462	3	0.00350009	12	6.5564	0.000226642
2	1	0	1	0	182.88	0.961942	0.96054	0.253282	3	0.00355049	12	6.7565	0.000243287
2	1	0	0	0	183.071	0.9999	0.998778	0.270645	3	0.00359992	12	6.9473	0.000270314
2	1	0	1	0	183.268	0.960342	0.958969	0.24816	3	0.00365021	12	7.145	0.000237978
2	1	0	1	0	183.468	0.920333	0.918937	0.238988	3	0.00369918	12	7.3451	0.000219614
2	1	0	1	0	183.668	0.880324	0.878887	0.230387	3	0.00374637	12	7.5451	0.000202484
2	1	0	1	0	183.868	0.840316	0.83884	0.221372	3	0.00379183	12	7.7452	0.000185696
2	1	0	1	0	184.068	0.800307	0.798843	0.213513	3	0.00383558	12	7.9452	0.000170563
2	1	0	1	0	184.268	0.760298	0.758826	0.205243	3	0.00387766	12	8.1452	0.000155744
2	1	0	1	0	184.469	0.72029	0.718794	0.197083	3	0.00391808	12	8.3453	0.000141662
2	1	0	1	0	184.669	0.680281	0.678779	0.18882	3	0.00395685	12	8.5453	0.000128167
2	1	0	1	0	184.869	0.640273	0.638763	0.180884	3	0.00399399	12	8.7454	0.000115542
2	1	0	1	0	185.069	0.600264	0.598773	0.172969	3	0.00402949	12	8.9454	0.000103569
2	1	0	1	0	185.269	0.560255	0.558817	0.164517	3	0.0040634	12	9.1455	9.19349e-05
2	1	0	1	0	185.469	0.520247	0.518783	0.156197	3	0.00409566	12	9.3455	8.10324e-05
2	1	0	1	0	185.669	0.480238	0.4788	0.148578	3	0.00412632	12	9.5455	7.11393e-05
2	1	0	1	0	185.869	0.44023	0.438745	0.140629	3	0.0041554	12	9.7456	6.17004e-05
2	1	0	1	0	186.069	0.400221	0.398751	0.132634	3	0.00418287	12	9.9456	5.2888e-05
2	1	0	1	0	186.269	0.360212	0.358745	0.12447	3	0.00420876	12	10.1457	4.46529e-05
2	1	0	1	0	186.469	0.320204	0.31873	0.116676	3	0.00423307	12	10.3457	3.7188e-05
2	1	0	1	0	186.669	0.280195	0.278706	0.108782	3	0.0042558	12	10.5458	3.03183e-05
2	1	0	1	0	186.869	0.240186	0.238736	0.100601	3	0.00427694	12	10.7458	2.4017e-05
2	1	0	1	0	187.069	0.200178	0.198698	0.0927982	3	0.00429649	12	10.9458	1.84389e-05
2	1	0	1	0	187.269	0.160169	0.158659	0.0847451	3	0.00431444	12	11.1459	1.34456e-05
2	1	0	1	0	187.469	0.120161	0.118628	0.0763133	3	0.00433075	12	11.3459	9.05293e-06
2	1	0	1	0	187.669	0.0801518	0.0787162	0.067356	3	0.00434538	12	11.546	5.30201e-06
2	1	0	1	0	187.869	0.0401432	0.0386877	0.0574765	3	0.00435822	12	11.746	2.22363e-06
2	1	0	1	0	188.069	0.000134604	-0.00135474	0.0463206	3	0.00436909	12	11.9461	-6.27523e-08
2	1	0	1	0	188.269	-0.039874	-0.0414613	0.0327862	3	0.00437766	12	12.1461	-1.35936e-06
2	1	0	1	0	188.469	-0.0798827	-0.0814189	0.0181553	3	0.00438359	12	12.3461	-1.47818e-06
2	1	0	1	0	188.669	-0.119891	-0.121449	0.00335	3	0.00438668	12	12.5462	-4.06854e-07
2	0	0	1	0	188.869	-0.1599	-0.161482	-0.0098766	3	0.00438702	12	0.005	1.59489e-06
2	0	0	1	0	189.07	-0.199909	-0.201443	-0.0201945	3	0.00438501	12	0.2051	4.06803e-06
2	0	0	1	0	189.27	-0.239917	-0.241463	-0.0269864	3	0.00438127	12	0.4051	6.5162e-06
2	0	0	1	0	189.47	-0.279926	-0.281519	-0.0306319	3	0.00437644	12	0.6052	8.62345e-06
2	0	0	1	0	189.67	-0.319935	-0.321481	-0.033381	3	0.0043709	12	0.8052	1.07314e-05
2	0	0	1	0	189.87	-0.359943	-0.361533	-0.0363804	3	0.00436473	12	1.0052	1.31527e-05
2	0	0	1	0	190.07	-0.399952	-0.401555	-0.0397461	3	0.00435777	12	1.2053	1.59602e-05
2	0	0	1	0	190.27	-0.43996	-0.441532	-0.0435745	3	0.00434991	12	1.4053	1.92396e-05
2	0	0	1	0	190.47	-0.479969	-0.481535	-0.0471939	3	0.00434112	12	1.6054	2.27255e-05
2	0	0	1	0	190.67	-0.519978	-0.521583	-0.0528156	3	0.00433126	12	1.8054	2.75477e-05
2	0	0	1	0	190.87	-0.559986	-0.561588	-0.0583155	3	0.00432013	12	2.0055	3.27493e-05
2	0	0	1	0	191.07	-0.599995	-0.601612	-0.0646229	3	0.00430767	12	2.2055	3.88779e-05
2	0	0	1	0	191.27	-0.640004	-0.641572	-0.0715186	3	0.00429381	12	2.4056	4.58844e-05
2	0	0	1	0	191.47	-0.680012	-0.681586	-0.0785439	3	0.00427855	12	2.6056	5.35344e-05
2	0	0	1	0	191.67	-0.720021	-0.721651	-0.085998	3	0.00426184	12	2.8056	6.20605e-05
2	0	0	1	0	191.87	-0.76003	-0.761612	-0.0920624	3	0.00424367	12	3.0057	7.01158e-05
2	0	0	1	0	192.07	-0.800038	-0.801579	-0.0995273	3	0.00422403	12	3.2057	7.9779e-05
2	0	0	1	0	192.27	-0.840047	-0.841643	-0.107225	3	0.00420289	12	3.4058	9.02456e-05
2	0	0	1	0	192.47	-0.880056	-0.88165	-0.114434	3	0.00418027	12	3.6058	0.000100891
2	0	0	1	0	192.67	-0.920064	-0.921647	-0.121357	3	0.0041561	12	3.8059	0.000111848
2	0	0	1	0	192.87	-0.960073	-0.961655	-0.129188	3	0.00413038	12	4.0059	0.000124234
2	0	0	1	0	193.069	-0.999781	-1.00138	-0.14337	3	0.00410319	12	4.2044	0.000143568
2	0	0	1	1	193.263	-0.961473	-0.962985	-0.123454	3	0.00407882	12	4.3984	0.000118885
2	0	0	1	1	193.463	-0.921464	-0.923003	-0.113361	3	0.00405598	12	4.5984	0.000104633
2	0	0	1	1	193.663	-0.881456	-0.883046	-0.104179	3	0.00403505	12	4.7985	9.19952e-05
2	0	0	1	1	193.863	-0.841447	-0.843013	-0.0955028	3	0.0040159	12	4.9985	8.05101e-05
2	0	0	1	1	194.063	-0.801439	-0.802919	-0.0867394	3	0.00399846	12	5.1986	6.96447e-05
2	0	0	1	1	194.263	-0.76143	-0.762954	-0.0784368	3	0.0039827	12	5.3986	5.98437e-05
2	0	0	1	1	194.463	-0.721421	-0.722925	-0.0704042	3	0.00396857	12	5.5987	5.08969e-05
2	0	0	1	1	194.663	-0.681413	-0.682906	-0.0623866	3	0.00395606	12	5.7987	4.26042e-05
2	0	0	1	1	194.863	-0.641404	-0.64292	-0.0543248	3	0.00394517	12	5.9987	3.49265e-05
2	0	0	1	1	195.063	-0.601395	-0.602965	-0.0456106	3	0.00393589	12	6.1988	2.75016e-05
2	0	0	1	1	195.263	-0.561387	-0.562925	-0.0375166	3	0.00392823	12	6.3988	2.1119e-05
2	0	0	1	1	195.463	-0.521378	-0.522891	-0.0294942	3	0.00392218	12	6.5989	1.54223e-05
2	0	0	1	1	195.663	-0.481369	-0.482899	-0.0210652	3	0.00391779	12	6.7989	1.01724e-05
2	0	0	1	1	195.863	-0.441361	-0.442924	-0.0125476	3	0.00391511	12	6.999	5.55765e-06
2	0	0	1	1	196.063	-0.401352	-0.402922	-0.00351035	3	0.00391421	12	0.005	1.4144e-06
2	1	0	1	1	196.261	-0.361894	-0.363285	0.013926	4	0.00391516	12	0.1223	-5.05909e-06
2	1	0	1	1	196.459	-0.322335	-0.32383	0.0262019	4	0.00391799	12	0.3201	-8.48497e-06
2	1	0	1	1	196.659	-0.282326	-0.283872	0.0368295	4	0.00392282	12	0.5201	-1.04548e-05
2	1	0	1	1	196.859	-0.242318	-0.243814	0.0464987	4	0.00392967	12	0.7202	-1.1337e-05
2	1	0	1	1	197.059	-0.202309	-0.203836	0.0567437	4	0.00393851	12	0.9202	-1.15664e-05
2	1	0	1	1	197.259	-0.1623	-0.16386	0.0666116	4	0.00394927	12	1.1203	-1.0915e-05
2	1	0	1	1	197.459	-0.122292	-0.123839	0.0753497	4	0.00396183	12	1.3203	-9.33124e-06
2	1	0	1	1	197.659	-0.0822832	-0.0838259	0.0824116	4	0.00397608	12	1.5204	-6.90823e-06
2	1	0	1	1	197.859	-0.0422746	-0.0437928	0.088795	4	0.00399183	12	1.7204	-3.88859e-06
2	1	0	1	1	198.059	-0.00226591	-0.00369331	0.0939705	4	0.00400886	12	1.9204	-3.47062e-07
2	1	0	1	1	198.259	0.0377427	0.0363141	0.0978986	4	0.00402694	12	2.1205	3.55509e-06
2	1	0	1	1	198.459	0.0777513	0.076263	0.101872	4	0.00404603	12	2.3205	7.76907e-06
2	1	0	1	1	198.659	0.11776	0.116303	0.106971	4	0.00406623	12	2.5206	1.24411e-05
2	1	0	1	1	198.859	0.157769	0.156309	0.112641	4	0.00408767	12	2.7206	1.76068e-05
2	1	0	1	1	199.059	0.197777	0.196326	0.11898	4	0.00411043	12	2.9207	2.33588e-05
2	1	0	1	1	199.259	0.237786	0.236316	0.125881	4	0.00413456	12	3.1207	2.97478e-05
2	1	0	1	1	199.459	0.277795	0.276314	0.132591	4	0.00416007	12	3.3207	3.66368e-05
2	1	0	1	1	199.659	0.317803	0.316357	0.139088	4	0.00418699	12	3.5208	4.40013e-05
2	1	0	1	1	199.859	0.357812	0.356386	0.145706	4	0.0042153	12	3.7208	5.19276e-05
2	1	0	1	1	200.059	0.39782	0.39636	0.152535	4	0.00424501	12	3.9209	6.04589e-05
2	1	0	1	1	200.259	0.437829	0.436413	0.159652	4	0.00427611	12	4.1209	6.96742e-05
2	1	0	1	1	200.459	0.477838	0.476362	0.166498	4	0.00430863	12	4.321	7.93134e-05
2	1	0	1	1	200.659	0.517846	0.516371	0.174339	4	0.00434252	12	4.521	9.00236e-05
2	1	0	1	1	200.859	0.557855	0.55634	0.180955	4	0.00437781	12	4.721	0.000100672
2	1	0	1	1	201.06	0.597864	0.596353	0.187362	4	0.00441453	12	4.9211	0.000111734
2	1	0	1	1	201.26	0.637872	0.636406	0.194859	4	0.00445265	12	5.1211	0.000124009
2	1	0	1	1	201.46	0.677881	0.676446	0.201384	4	0.00449219	12	5.3212	0.000136225
2	1	0	1	1	201.66	0.717889	0.716421	0.208937	4	0.00453314	12	5.5212	0.000149686
2	1	0	1	1	201.86	0.757898	0.756457	0.215391	4	0.00457554	12	5.7213	0.000162934
2	1	0	1	1	202.06	0.797907	0.796459	0.222687	4	0.00461932	12	5.9213	0.000177361
2	1	0	1	1	202.26	0.837915	0.836554	0.229857	4	0.00466455	12	6.1213	0.000192288
2	1	0	1	1	202.46	0.877924	0.876576	0.235904	4	0.00471122	12	6.3214	0.000206788
2	1	0	1	1	202.66	0.917933	0.916585	0.243604	4	0.00475932	12	6.5214	0.000223284
2	1	0	1	1	202.86	0.957941	0.956544	0.25047	4	0.00480889	12	6.7215	0.000239586
2	1	0	1	1	203.06	0.99795	0.996613	0.256961	4	0.00485987	12	6.9215	0.000256091
2	1	0	1	1	203.248	0.964342	0.962933	0.245229	4	0.00490731	12	7.11	0.000236139
2	1	0	1	1	203.449	0.924334	0.922926	0.236073	4	0.00495578	12	7.3101	0.000217878
2	1	0	1	1	203.649	0.884325	0.882896	0.227417	4	0.00500247	12	7.5101	0.000200785
2	1	0	1	1	203.849	0.844317	0.842871	0.218915	4	0.00504743	12	7.7101	0.000184517
2	1	0	1	1	204.049	0.804308	0.802917	0.209937	4	0.00509074	12	7.9102	0.000168562
2	1	0	1	1	204.249	0.764299	0.762872	0.201567	4	0.00513238	12	8.1102	0.00015377
2	1	0	1	1	204.449	0.724291	0.722806	0.193883	4	0.00517241	12	8.3103	0.00014014
2	1	0	1	1	204.649	0.684282	0.682791	0.185521	4	0.0052108	12	8.5103	0.000126672
2	1	0	1	1	204.849	0.644274	0.642771	0.177412	4	0.00524758	12	8.7104	0.000114035
2	1	0	1	1	205.049	0.604265	0.602787	0.170288	4	0.00528274	12	8.9104	0.000102647
2	1	0	1	1	205.249	0.564274	0.562823	0.161762	4	0.00531631	12	9.1104	9.10431e-05
2	1	0	1	1	205.449	0.524248	0.522831	0.153599	4	0.00534828	12	9.3105	8.03065e-05
2	1	0	1	1	205.649	0.484239	0.482746	0.144946	4	0.00537868	12	9.5105	6.9972e-05
2	1	0	1	1	205.849	0.44423	0.442672	0.137744	4	0.00540749	12	9.7106	6.09754e-05
2	1	0	1	1	206.049	0.404222	0.402726	0.13039	4	0.00543473	12	9.9106	5.25115e-05
2	1	0	1	1	206.249	0.364213	0.36275	0.12242	4	0.00546041	12	10.1107	4.44079e-05
2	1	0	1	1	206.449	0.324205	0.322702	0.11501	4	0.00548452	12	10.3107	3.71138e-05
2	1	0	1	1	206.649	0.284196	0.282758	0.107249	4	0.00550709	12	10.5108	3.03254e-05
2	1	0	1	1	206.849	0.244187	0.242719	0.0992318	4	0.00552807	12	10.7108	2.40854e-05
2	1	0	1	1	207.049	0.204179	0.202647	0.0915445	4	0.00554749	12	10.9108	1.85512e-05
2	1	0	1	1	207.249	0.16417	0.162647	0.0835349	4	0.00556534	12	11.1109	1.35867e-05
2	1	0	1	1	207.449	0.124161	0.122697	0.0752558	4	0.00558156	12	11.3109	9.23363e-06
2	1	0	1	1	207.649	0.0841527	0.0826618	0.0667575	4	0.00559613	12	11.511	5.51829e-06
2	1	0	1	1	207.849	0.0441441	0.0426599	0.0570336	4	0.00560895	12	11.711	2.43305e-06
2	1	0	1	1	208.05	0.00413547	0.0025905	0.0461859	4	0.00561983	12	11.9111	1.19645e-07
2	1	0	1	1	208.25	-0.0358732	-0.0374709	0.0333156	4	0.00562847	12	12.1111	-1.24837e-06
2	1	0	1	1	208.45	-0.0758818	-0.0774585	0.0187286	4	0.00563451	12	12.3111	-1.45069e-06
2	1	0	1	1	208.65	-0.11589	-0.117421	0.00392151	4	0.00563772	12	12.5112	-4.60469e-07
2	0	0	1	1	208.85	-0.155899	-0.157451	-0.00969862	4	0.00563816	12	0.005	1.52706e-06
2	0	0	1	1	209.05	-0.195908	-0.19748	-0.0203352	4	0.00563622	12	0.2051	4.01581e-06
2	0	0	1	1	209.25	-0.235916	-0.237487	-0.0275734	4	0.0056325	12	0.4051	6.54834e-06
2	0	0	1	1	209.45	-0.275925	-0.277523	-0.0308291	4	0.00562766	12	0.6052	8.55576e-06
2	0	0	1	1	209.65	-0.315934	-0.317534	-0.0334349	4	0.00562211	12	0.8052	1.06167e-05
2	0	0	1	1	209.85	-0.355942	-0.357507	-0.0360293	4	0.00561596	12	1.0052	1.28807e-05
2	0	0	1	1	210.05	-0.395951	-0.397503	-0.03909	4	0.00560908	12	1.2053	1.55384e-05
2	0	0	1	1	210.25	-0.43596	-0.437525	-0.0424954	4	0.00560132	12	1.4053	1.85928e-05
2	0	0	1	1	210.45	-0.475968	-0.477546	-0.0457731	4	0.00559266	12	1.6054	2.18588e-05
2	0	0	1	1	210.65	-0.515977	-0.517567	-0.0509752	4	0.00558297	12	1.8054	2.63831e-05
2	0	0	1	1	210.85	-0.555986	-0.557535	-0.0557375	4	0.00557204	12	2.0055	3.10756e-05
2	0	0	1	1	211.05	-0.595994	-0.59759	-0.0623013	4	0.0055598	12	2.2055	3.72306e-05
2	0	0	1	1	211.25	-0.636003	-0.6376	-0.0691144	4	0.00554619	12	2.4055	4.40674e-05
2	0	0	1	1	211.45	-0.676011	-0.677549	-0.0760498	4	0.00553117	12	2.6056	5.15275e-05
2	0	0	1	1	211.65	-0.71602	-0.717585	-0.0829168	4	0.00551474	12	2.8056	5.94999e-05
2	0	0	1	1	211.85	-0.756029	-0.757531	-0.0893342	4	0.00549686	12	3.0057	6.76734e-05
2	0	0	1	1	212.05	-0.796037	-0.797569	-0.0964753	4	0.00547752	12	3.2057	7.69457e-05
2	0	0	1	1	212.25	-0.836046	-0.837608	-0.103981	4	0.00545671	12	3.4058	8.70951e-05
2	0	0	1	1	212.45	-0.876055	-0.877674	-0.111443	4	0.00543443	12	3.6058	9.78104e-05
2	0	0	1	1	212.65	-0.916063	-0.917584	-0.11911	4	0.00541064	12	3.8058	0.000109294
2	0	0	1	1	212.851	-0.956072	-0.957619	-0.126643	4	0.00538531	12	4.0059	0.000121275
2	0	0	1	1	213.051	-0.996081	-0.997638	-0.135138	4	0.00535835	12	4.2059	0.000134819
2	0	0	1	0	213.243	-0.965474	-0.967018	-0.123091	4	0.00533401	12	4.3984	0.000119031
2	0	0	1	0	213.443	-0.925465	-0.926959	-0.112989	4	0.00531121	12	4.5984	0.000104736
2	0	0	1	0	213.643	-0.885457	-0.887011	-0.104054	4	0.0052903	12	4.7985	9.22967e-05
2	0	0	1	0	213.843	-0.845448	-0.846979	-0.0953708	4	0.00527117	12	4.9985	8.07771e-05
2	0	0	1	0	214.043	-0.805439	-0.806952	-0.0865618	4	0.00525372	12	5.1986	6.98512e-05
2	0	0	1	0	214.243	-0.765431	-0.766925	-0.0785302	4	0.00523793	12	5.3986	6.02268e-05
2	0	0	1	0	214.443	-0.725422	-0.726951	-0.0701925	4	0.00522376	12	5.5987	5.10265e-05
2	0	0	1	0	214.643	-0.685414	-0.686947	-0.0622727	4	0.0052112	12	5.7987	4.2778e-05
2	0	0	1	0	214.843	-0.645405	-0.646952	-0.0538866	4	0.00520023	12	5.9987	3.48621e-05
2	0	0	1	0	215.043	-0.605396	-0.606989	-0.0458593	4	0.00519084	12	6.1988	2.78361e-05
2	0	0	1	0	215.243	-0.565388	-0.566927	-0.0379803	4	0.00518306	12	6.3988	2.15321e-05
2	0	0	1	0	215.444	-0.525379	-0.526926	-0.0293419	4	0.00517687	12	6.5989	1.5461e-05
2	0	0	1	0	215.644	-0.48537	-0.486923	-0.021433	4	0.00517231	12	6.7989	1.04362e-05
2	0	0	1	0	215.844	-0.445362	-0.446922	-0.01311	4	0.00516943	12	6.999	5.85916e-06
2	0	0	1	0	216.044	-0.405353	-0.40691	-0.00422654	4	0.00516831	12	0.000000000000000E+000	1.71982e-06
2	0	0	1	0	216.244	-0.365344	-0.366912	0.00479697	4	0.00516904	12	0.125	-1.76007e-06
2	1	0	1	0	216.439	-0.326336	-0.327884	0.0247417	5	0.00517159	12	0.3201	-8.1124e-06
2	1	0	1	0	216.639	-0.286327	-0.287917	0.0352725	5	0.00517614	12	0.5201	-1.01556e-05
2	1	0	1	0	216.839	-0.246319	-0.247863	0.0452945	5	0.00518269	12	0.7202	-1.12268e-05
2	1	0	1	0	217.039	-0.20631	-0.207863	0.0554322	5	0.00519122	12	0.9202	-1.15223e-05
2	1	0	1	0	217.239	-0.166301	-0.16778	0.0652001	5	0.00520168	12	1.1203	-1.09393e-05
2	1	0	1	0	217.439	-0.126293	-0.127788	0.0738544	5	0.00521393	12	1.3203	-9.43772e-06
2	1	0	1	0	217.639	-0.0862841	-0.087765	0.0814112	5	0.00522786	12	1.5203	-7.14505e-06
2	1	0	1	0	217.839	-0.0462754	-0.0477937	0.0868904	5	0.00524331	12	1.7204	-4.15281e-06
2	1	0	1	0	218.039	-0.00626678	-0.0077917	0.0923966	5	0.00526004	12	1.9204	-7.19926e-07
2	1	0	1	0	218.239	0.0337418	0.0322929	0.0963385	5	0.00527783	12	2.1205	3.11105e-06
2	1	0	1	0	218.439	0.0737505	0.0723008	0.100518	5	0.00529658	12	2.3205	7.26751e-06
2	1	0	1	0	218.639	0.113759	0.11225	0.105576	5	0.00531642	12	2.5206	1.18508e-05
2	1	0	1	0	218.839	0.153768	0.152285	0.1106	5	0.00533745	12	2.7206	1.68427e-05
2	1	0	1	0	219.039	0.193772	0.192265	0.116983	5	0.00535977	12	2.9206	2.24917e-05
2	1	0	1	0	219.239	0.233785	0.232308	0.12381	5	0.00538345	12	3.1207	2.87621e-05
2	1	0	1	0	219.439	0.273794	0.272255	0.130201	5	0.0054085	12	3.3207	3.54479e-05
2	1	0	1	0	219.639	0.313802	0.312345	0.136797	5	0.00543493	12	3.5208	4.27278e-05
2	1	0	1	0	219.839	0.353811	0.35232	0.144056	5	0.00546272	12	3.7208	5.07538e-05
2	1	0	1	0	220.04	0.39382	0.392358	0.150905	5	0.00549191	12	3.9209	5.92086e-05
2	1	0	1	0	220.24	0.433828	0.43239	0.157778	5	0.00552246	12	4.1209	6.82217e-05
2	1	0	1	0	220.44	0.473837	0.472406	0.164222	5	0.0055544	12	4.321	7.75794e-05
2	1	0	1	0	220.64	0.513845	0.512441	0.170783	5	0.00558771	12	4.521	8.75163e-05
2	1	0	1	0	220.84	0.553854	0.552421	0.177522	5	0.0056224	12	4.721	9.80671e-05
2	1	0	1	0	221.04	0.593863	0.59235	0.184518	5	0.00565851	12	4.9211	0.000109299
2	1	0	1	0	221.24	0.633871	0.632377	0.191728	5	0.00569599	12	5.1211	0.000121244
2	1	0	1	0	221.44	0.67388	0.672411	0.198415	5	0.00573488	12	5.3212	0.000133416
2	1	0	1	0	221.64	0.713889	0.712383	0.205942	5	0.00577516	12	5.5212	0.00014671
2	1	0	1	0	221.84	0.753897	0.75244	0.212383	5	0.00581685	12	5.7213	0.000159806
2	1	0	1	0	222.04	0.793906	0.792396	0.2195	5	0.00585992	12	5.9213	0.000173931
2	1	0	1	0	222.24	0.833914	0.83249	0.226207	5	0.00590442	12	6.1213	0.000188315
2	1	0	1	0	222.44	0.873923	0.872512	0.233922	5	0.00595034	12	6.3214	0.000204099
2	1	0	1	0	222.64	0.913932	0.912521	0.241042	5	0.00599768	12	6.5214	0.000219956
2	1	0	1	0	222.84	0.95394	0.952568	0.248133	5	0.00604646	12	6.7215	0.000236363
2	1	0	1	0	223.04	0.993949	0.992593	0.254862	5	0.00609665	12	6.9215	0.000252974
2	1	0	1	0	223.229	0.968343	0.966965	0.241693	5	0.00614366	12	7.11	0.000233709
2	1	0	1	0	223.429	0.928335	0.926904	0.232851	5	0.00619168	12	7.3101	0.000215831
2	1	0	1	0	223.629	0.888326	0.886887	0.223891	5	0.00623791	12	7.5101	0.000198566
2	1	0	1	0	223.829	0.848318	0.846934	0.215799	5	0.00628246	12	7.7101	0.000182768
2	1	0	1	0	224.029	0.808309	0.806824	0.2072	5	0.00632536	12	7.9102	0.000167174
2	1	0	1	0	224.229	0.7683	0.766843	0.199932	5	0.0063666	12	8.1102	0.000153317
2	1	0	1	0	224.429	0.728292	0.726787	0.191865	5	0.00640627	12	8.3103	0.000139445
2	1	0	1	0	224.629	0.688283	0.686768	0.184023	5	0.0064443	12	8.5103	0.000126381
2	1	0	1	0	224.829	0.648274	0.646841	0.175734	5	0.00648076	12	8.7104	0.000113672
2	1	0	1	0	225.029	0.608266	0.606799	0.167696	5	0.00651561	12	8.9104	0.000101758
2	1	0	1	0	225.229	0.568257	0.566778	0.159328	5	0.00654889	12	9.1104	9.03037e-05
2	1	0	1	0	225.429	0.528248	0.526756	0.151737	5	0.00658061	12	9.3105	7.99286e-05
2	1	0	1	0	225.629	0.48824	0.486699	0.143996	5	0.00661075	12	9.5105	7.0083e-05
2	1	0	1	0	225.829	0.448231	0.446745	0.137014	5	0.00663933	12	9.7106	6.12105e-05
2	1	0	1	0	226.029	0.408223	0.406701	0.129696	5	0.00666636	12	9.9106	5.27474e-05
2	1	0	1	0	226.229	0.368214	0.366782	0.120872	5	0.00669185	12	10.1107	4.43337e-05
2	1	0	1	0	226.429	0.328205	0.326736	0.113352	5	0.00671579	12	10.3107	3.70362e-05
2	1	0	1	0	226.629	0.288197	0.286777	0.105631	5	0.00673818	12	10.5107	3.02926e-05
2	1	0	1	0	226.829	0.248188	0.246683	0.0980623	5	0.00675905	12	10.7108	2.41903e-05
2	1	0	1	0	227.029	0.208179	0.20674	0.0902387	5	0.00677836	12	10.9108	1.86559e-05
2	1	0	1	0	227.23	0.168171	0.166693	0.0821359	5	0.00679611	12	11.1109	1.36915e-05
2	1	0	1	0	227.43	0.128162	0.126667	0.074083	5	0.00681226	12	11.3109	9.38387e-06
2	1	0	1	0	227.63	0.0881536	0.0867615	0.065156	5	0.0068268	12	11.511	5.65303e-06
2	1	0	1	0	227.83	0.048145	0.0467064	0.0554575	5	0.0068396	12	11.711	2.59022e-06
2	1	0	1	0	228.03	0.00813633	0.00662429	0.0444781	5	0.00685051	12	11.9111	2.94636e-07
2	1	0	1	0	228.23	-0.0318723	-0.0334358	0.0316842	5	0.00685923	12	12.1111	-1.05939e-06
2	1	0	1	0	228.43	-0.071881	-0.0734638	0.017452	5	0.00686539	12	12.3111	-1.28209e-06
2	1	0	1	0	228.63	-0.11189	-0.113432	0.00294567	5	0.00686874	12	12.5112	-3.34133e-07
2	0	0	1	0	228.83	-0.151898	-0.153483	-0.0108247	5	0.00686931	12	0.02	1.66141e-06
2	0	0	1	0	229.03	-0.191907	-0.193424	-0.0221469	5	0.00686747	12	0.2201	4.28375e-06
2	0	0	1	0	229.23	-0.231916	-0.233429	-0.029829	5	0.00686381	12	0.4201	6.96295e-06
2	0	0	1	0	229.43	-0.271924	-0.273534	-0.0339352	5	0.00685899	12	0.6202	9.28241e-06
2	0	0	1	0	229.63	-0.311933	-0.313525	-0.0366288	5	0.00685347	12	0.8202	1.14841e-05
2	0	0	1	0	229.83	-0.351941	-0.353535	-0.0391682	5	0.00684737	12	1.0202	1.38473e-05
2	0	0	1	0	230.03	-0.39195	-0.393549	-0.0426264	5	0.00684057	12	1.2203	1.67756e-05
2	0	0	1	0	230.23	-0.431959	-0.433505	-0.0459259	5	0.00683293	12	1.4203	1.99091e-05
2	0	0	1	0	230.43	-0.471967	-0.473482	-0.0492614	5	0.00682442	12	1.6204	2.33244e-05
2	0	0	1	0	230.63	-0.511976	-0.513536	-0.0541347	5	0.00681491	12	1.8204	2.78001e-05
2	0	0	1	0	230.83	-0.551985	-0.553564	-0.0602317	5	0.00680419	12	2.0205	3.33421e-05
2	0	0	1	0	231.03	-0.591993	-0.59359	-0.0665719	5	0.00679218	12	2.2205	3.95164e-05
2	0	0	1	0	231.23	-0.632002	-0.633534	-0.073183	5	0.00677881	12	2.4205	4.63639e-05
2	0	0	1	0	231.43	-0.672011	-0.673471	-0.0793992	5	0.00676406	12	2.6206	5.3473e-05
2	0	0	1	0	231.63	-0.712019	-0.713518	-0.0865901	5	0.00674791	12	2.8206	6.17836e-05
2	0	0	1	0	231.831	-0.752028	-0.753532	-0.0939592	5	0.00673033	12	3.0207	7.08013e-05
2	0	0	1	0	232.031	-0.792037	-0.793566	-0.101407	5	0.00671132	12	3.2207	8.04731e-05
2	0	0	1	0	232.231	-0.832045	-0.833607	-0.108359	5	0.00669084	12	3.4208	9.03288e-05
2	0	0	1	0	232.431	-0.872054	-0.873588	-0.115379	5	0.00666891	12	3.6208	0.000100794
2	0	0	1	0	232.631	-0.912062	-0.913587	-0.123136	5	0.00664551	12	3.8208	0.000112496
2	0	0	1	0	232.831	-0.952071	-0.953681	-0.130329	5	0.00662056	12	4.0209	0.000124292
2	0	0	1	0	233.031	-0.99208	-0.993676	-0.139023	5	0.00659405	12	4.2209	0.000138143
2	0	0	1	1	233.223	-0.969475	-0.971008	-0.121158	5	0.00656957	12	4.4134	0.000117646
2	0	0	1	1	233.423	-0.929466	-0.930969	-0.111163	5	0.00654681	12	4.6134	0.00010349
2	0	0	1	1	233.623	-0.889458	-0.890965	-0.103488	5	0.00652595	12	4.8135	9.22044e-05
2	0	0	1	1	233.823	-0.849449	-0.850955	-0.0947048	5	0.00650684	12	5.0135	8.05896e-05
2	0	0	1	1	234.023	-0.80944	-0.810931	-0.0866968	5	0.00648941	12	5.2136	7.03051e-05
2	0	0	1	1	234.223	-0.769432	-0.77093	-0.0786834	5	0.00647361	12	5.4136	6.06594e-05
2	0	0	1	1	234.424	-0.729423	-0.730893	-0.0708852	5	0.00645942	12	5.6137	5.18095e-05
2	0	0	1	1	234.624	-0.689414	-0.690914	-0.0633953	5	0.00644681	12	5.8137	4.38006e-05
2	0	0	1	1	234.824	-0.649406	-0.650931	-0.055464	5	0.00643578	12	6.0137	3.61032e-05
2	0	0	1	1	235.024	-0.609397	-0.610949	-0.0471757	5	0.00642632	12	6.2138	2.88219e-05
2	0	0	1	1	235.224	-0.569388	-0.570905	-0.0393565	5	0.00641843	12	6.4138	2.24688e-05
2	0	0	1	1	235.424	-0.52938	-0.530905	-0.0314178	5	0.00641212	12	6.6139	1.66799e-05
2	0	0	1	1	235.624	-0.489371	-0.49092	-0.0232054	5	0.00640741	12	6.8139	1.1392e-05
2	0	0	1	1	235.824	-0.449362	-0.450875	-0.0148128	5	0.00640437	12	7.014	6.6787e-06
2	0	0	1	1	236.024	-0.409354	-0.410874	-0.00618749	5	0.00640305	12	0.000000000000000E+000	2.54228e-06
2	1	0	1	1	236.224	-0.369345	-0.370878	0.00325946	5	0.00640355	12	0.09	-1.20886e-06
2	1	0	1	1	236.419	-0.330337	-0.331896	0.0233519	6	0.00640586	12	0.2851	-7.75041e-06
2	1	0	1	1	236.619	-0.290328	-0.291848	0.033468	6	0.00641015	12	0.4851	-9.76754e-06
2	1	0	1	1	236.819	-0.25032	-0.251843	0.0432863	6	0.00641643	12	0.6852	-1.09014e-05
2	1	0	1	1	237.019	-0.210311	-0.211848	0.0537337	6	0.00642468	12	0.8852	-1.13834e-05
2	1	0	1	1	237.219	-0.170302	-0.171856	0.0628541	6	0.00643485	12	1.0853	-1.08019e-05
2	1	0	1	1	237.419	-0.130294	-0.131854	0.0715339	6	0.00644681	12	1.2853	-9.43203e-06
2	1	0	1	1	237.619	-0.0902849	-0.0918778	0.079511	6	0.00646044	12	1.4853	-7.30529e-06
2	1	0	1	1	237.819	-0.0502763	-0.0518343	0.0862812	6	0.00647561	12	1.6854	-4.47233e-06
2	1	0	1	1	238.019	-0.0102676	-0.0118041	0.0915075	6	0.00649206	12	1.8854	-1.08017e-06
2	1	0	1	1	238.219	0.029741	0.0282582	0.0956143	6	0.00650956	12	2.0855	2.70189e-06
2	1	0	1	1	238.419	0.0697496	0.0682137	0.0997812	6	0.00652801	12	2.2855	6.80644e-06
2	1	0	1	1	238.619	0.109758	0.108323	0.10384	6	0.00654751	12	2.4856	1.12483e-05
2	1	0	1	1	238.819	0.149767	0.148291	0.109372	6	0.00656816	12	2.6856	1.62188e-05
2	1	0	1	1	239.019	0.189775	0.18831	0.115711	6	0.00659008	12	2.8856	2.17896e-05
2	1	0	1	1	239.22	0.229784	0.228353	0.123131	6	0.00661334	12	3.0857	2.81174e-05
2	1	0	1	1	239.42	0.269793	0.26841	0.129137	6	0.00663793	12	3.2857	3.46618e-05
2	1	0	1	1	239.62	0.309801	0.308405	0.135249	6	0.0066639	12	3.4858	4.17116e-05
2	1	0	1	1	239.82	0.34981	0.34835	0.141846	6	0.00669122	12	3.6858	4.94119e-05
2	1	0	1	1	240.02	0.389819	0.38837	0.148097	6	0.0067199	12	3.8859	5.75164e-05
2	1	0	1	1	240.22	0.429827	0.42839	0.15509	6	0.00674994	12	4.0859	6.64389e-05
2	1	0	1	1	240.42	0.469836	0.468361	0.161762	6	0.00678134	12	4.2859	7.57629e-05
2	1	0	1	1	240.62	0.509844	0.50844	0.168027	6	0.00681411	12	4.486	8.54317e-05
2	1	0	1	1	240.82	0.549853	0.54843	0.174984	6	0.00684824	12	4.686	9.59663e-05
2	1	0	1	1	241.02	0.589862	0.58836	0.181995	6	0.00688375	12	4.8861	0.000107078
2	1	0	1	1	241.22	0.62987	0.628375	0.188419	6	0.00692064	12	5.0861	0.000118398
2	1	0	1	1	241.42	0.669879	0.66843	0.195409	6	0.00695891	12	5.2862	0.000130617
2	1	0	1	1	241.62	0.709888	0.708408	0.202143	6	0.00699856	12	5.4862	0.0001432
2	1	0	1	1	241.82	0.749879	0.748489	0.208823	6	0.00703957	12	5.6862	0.000156302
2	1	0	1	1	242.02	0.789905	0.788492	0.215977	6	0.007082	12	5.8863	0.000170296
2	1	0	1	1	242.22	0.829914	0.828563	0.22311	6	0.00712581	12	6.0863	0.000184861
2	1	0	1	1	242.42	0.869922	0.868507	0.230512	6	0.00717102	12	6.2864	0.000200201
2	1	0	1	1	242.62	0.909931	0.908507	0.237931	6	0.00721765	12	6.4864	0.000216162
2	1	0	1	1	242.82	0.949939	0.948581	0.24371	6	0.00726567	12	6.6865	0.000231178
2	1	0	1	1	243.02	0.989948	0.988565	0.251743	6	0.0073151	12	6.8865	0.000248865
2	1	0	1	1	243.209	0.972344	0.97099	0.240027	6	0.00736173	12	7.075	0.000233064
2	1	0	1	1	243.409	0.932336	0.930934	0.231074	6	0.00740931	12	7.2751	0.000215115
2	1	0	1	1	243.609	0.892327	0.890895	0.222604	6	0.00745514	12	7.4751	0.000198317
2	1	0	1	1	243.809	0.852318	0.850872	0.213781	6	0.00749929	12	7.6751	0.0001819
2	1	0	1	1	244.009	0.81231	0.810775	0.207346	6	0.00754182	12	7.8752	0.000168111
2	1	0	1	1	244.209	0.772301	0.770763	0.198398	6	0.00758272	12	8.0752	0.000152918
2	1	0	1	1	244.409	0.732292	0.730906	0.190196	6	0.00762203	12	8.2753	0.000139015
2	1	0	1	1	244.609	0.692284	0.69082	0.182405	6	0.00765976	12	8.4753	0.000126009
2	1	0	1	1	244.809	0.652275	0.650772	0.174817	6	0.00769592	12	8.6754	0.000113766
2	1	0	1	1	245.009	0.612267	0.610736	0.167317	6	0.0077305	12	8.8754	0.000102186
2	1	0	1	1	245.209	0.572258	0.570771	0.159368	6	0.00776351	12	9.0754	9.09627e-05
2	1	0	1	1	245.409	0.532249	0.530718	0.151341	6	0.00779498	12	9.2755	8.03193e-05
2	1	0	1	1	245.609	0.492241	0.490712	0.143708	6	0.0078249	12	9.4755	7.05192e-05
2	1	0	1	1	245.809	0.452232	0.450847	0.135682	6	0.00785328	12	9.6756	6.1172e-05
2	1	0	1	1	246.009	0.412223	0.410804	0.127959	6	0.00788012	12	9.8756	5.25662e-05
2	1	0	1	1	246.21	0.372215	0.370763	0.120423	6	0.00790545	12	10.0757	4.46485e-05
2	1	0	1	1	246.41	0.332206	0.330696	0.112875	6	0.00792924	12	10.2757	3.73274e-05
2	1	0	1	1	246.61	0.292198	0.290698	0.105072	6	0.00795151	12	10.4757	3.05443e-05
2	1	0	1	1	246.81	0.252189	0.2507	0.0973803	6	0.00797227	12	10.6758	2.44132e-05
2	1	0	1	1	247.01	0.21218	0.210663	0.0892774	6	0.00799148	12	10.8758	1.88075e-05
2	1	0	1	1	247.21	0.172172	0.170663	0.0815131	6	0.00800916	12	11.0759	1.39113e-05
2	1	0	1	1	247.41	0.132163	0.130717	0.0733415	6	0.00802527	12	11.2759	9.587e-06
2	1	0	1	1	247.61	0.0921544	0.0907108	0.0650837	6	0.00803978	12	11.476	5.9038e-06
2	1	0	1	1	247.81	0.0521458	0.0506951	0.0558546	6	0.00805258	12	11.676	2.83156e-06
2	1	0	1	1	248.01	0.0121372	0.0106621	0.0453437	6	0.00806353	12	11.876	4.83457e-07
2	1	0	1	1	248.21	-0.0278714	-0.0294676	0.0321967	6	0.00807235	12	12.0761	-9.48758e-07
2	1	0	1	1	248.41	-0.0678801	-0.0694252	0.0179015	6	0.00807865	12	12.2761	-1.24282e-06
2	1	0	1	1	248.61	-0.107889	-0.109448	0.00355124	6	0.00808217	12	12.4762	-3.88674e-07
2	0	0	1	1	248.81	-0.147897	-0.14945	-0.010233	6	0.00808289	12	0.02	1.52933e-06
2	0	0	1	1	249.01	-0.187906	-0.189493	-0.021543	6	0.00808117	12	0.1851	4.08225e-06
2	0	0	1	1	249.21	-0.227915	-0.229486	-0.0291842	6	0.00807759	12	0.3851	6.69739e-06
2	0	0	1	1	249.41	-0.267923	-0.26949	-0.0336353	6	0.00807282	12	0.5851	9.06437e-06
2	0	0	1	1	249.61	-0.307932	-0.309434	-0.035995	6	0.00806735	12	0.7852	1.11381e-05
2	0	0	1	1	249.81	-0.347941	-0.349474	-0.0384552	6	0.0080613	12	0.9852	1.34391e-05
2	0	0	1	1	250.01	-0.387949	-0.389531	-0.0418403	6	0.0080546	12	1.1853	1.62981e-05
2	0	0	1	1	250.21	-0.427958	-0.429525	-0.0453662	6	0.00804708	12	1.3853	1.94859e-05
2	0	0	1	1	250.41	-0.467967	-0.469561	-0.0479344	6	0.00803871	12	1.5854	2.25081e-05
2	0	0	1	1	250.61	-0.507975	-0.509547	-0.0525539	6	0.00802938	12	1.7854	2.67787e-05
2	0	0	1	1	250.811	-0.547984	-0.549508	-0.058577	6	0.00801887	12	1.9855	3.21886e-05
2	0	0	1	1	251.011	-0.587992	-0.589492	-0.0649257	6	0.00800708	12	2.1855	3.82732e-05
2	0	0	1	1	251.211	-0.628001	-0.629493	-0.0718081	6	0.00799396	12	2.3855	4.52027e-05
2	0	0	1	1	251.411	-0.66801	-0.669509	-0.0781426	6	0.00797946	12	2.5856	5.23171e-05
2	0	0	1	1	251.611	-0.708018	-0.709556	-0.0852313	6	0.00796359	12	2.7856	6.04763e-05
2	0	0	1	1	251.811	-0.748027	-0.749561	-0.0925313	6	0.0079463	12	2.9857	6.93579e-05
2	0	0	1	1	252.011	-0.788036	-0.789563	-0.0996917	6	0.0079276	12	3.1857	7.87129e-05
2	0	0	1	1	252.211	-0.828044	-0.829613	-0.106375	6	0.00790744	12	3.3858	8.82502e-05
2	0	0	1	1	252.411	-0.868053	-0.869582	-0.114006	6	0.00788586	12	3.5858	9.91376e-05
2	0	0	1	1	252.611	-0.908062	-0.909611	-0.121325	6	0.0078628	12	3.7858	0.000110359
2	0	0	1	1	252.811	-0.94807	-0.949625	-0.128977	6	0.00783825	12	3.9859	0.00012248
2	0	0	1	1	253.011	-0.988079	-0.989619	-0.137498	6	0.00781214	12	4.1859	0.000136071
2	0	0	1	0	253.203	-0.973476	-0.97495	-0.119346	6	0.00778757	12	4.3784	0.000116356
2	0	0	1	0	253.403	-0.933467	-0.934934	-0.109359	6	0.00776483	12	4.5784	0.000102243
2	0	0	1	0	253.604	-0.893459	-0.89494	-0.101907	6	0.00774399	12	4.7785	9.12003e-05
2	0	0	1	0	253.804	-0.85345	-0.854906	-0.0931851	6	0.0077249	12	4.9785	7.96644e-05
2	0	0	1	0	254.004	-0.813441	-0.814859	-0.0851378	6	0.00770748	12	5.1786	6.93753e-05
2	0	0	1	0	254.204	-0.773432	-0.774898	-0.0776138	6	0.00769168	12	5.3786	6.01427e-05
2	0	0	1	0	254.404	-0.733424	-0.734885	-0.0693517	6	0.00767746	12	5.5786	5.09655e-05
2	0	0	1	0	254.604	-0.693415	-0.694876	-0.0627952	6	0.00766481	12	5.7787	4.36349e-05
2	0	0	1	0	254.804	-0.653407	-0.654921	-0.0551767	6	0.00765371	12	5.9787	3.61364e-05
2	0	0	1	0	255.004	-0.613398	-0.614852	-0.0471919	6	0.00764417	12	6.1788	2.90161e-05
2	0	0	1	0	255.204	-0.573389	-0.574821	-0.0398485	6	0.00763619	12	6.3788	2.29057e-05
2	0	0	1	0	255.404	-0.533381	-0.534938	-0.0321091	6	0.00762976	12	6.5789	1.71764e-05
2	0	0	1	0	255.604	-0.493372	-0.494908	-0.0241659	6	0.00762493	12	6.7789	1.19599e-05
2	0	0	1	0	255.804	-0.453363	-0.454886	-0.0158093	6	0.00762172	12	6.979	7.19142e-06
2	0	0	1	0	256.004	-0.413355	-0.414888	-0.00687515	6	0.00762022	12	7.179	2.85241e-06
2	1	0	1	0	256.204	-0.373346	-0.374841	0.00245917	6	0.00762052	12	0.04	-9.21798e-07
2	1	0	1	0	256.261	-0.361894	-0.363647	0.00466614	6	0.00762091	12	0.0971	-1.69683e-06