File: resorufin_10x_frittedTiCt_FTOWE_AgAgClref_N2sparge_3_16_CV_C12/resorufin_10x_frittedTiCt_FTOWE_AgAgClref_N2sparge_3_16_CV_C12.txt
EC-Lab ASCII FILE
Nb header lines : 59

Cyclic Voltammetry

Run on channel : 12 (SN 15159)
User :
CE vs. WE compliance from -10 V to 10 V
Electrode connection : standard
Potential control : Ewe
Ewe ctrl range : min = -2.50 V, max = 2.50 V
Safety Limits :
	Do not start on E overload
Acquisition started on : 06/27/2024 22:37:21.030
Technique started on : 06/27/2024 23:45:27.910
Loaded Setting File :  NONE
Saved on :
	File : resorufin_10x_frittedTiCt_FTOWE_AgAgClref_N2sparge_3_16_CV_C12.mpr
	Directory : C:\Users\user\OneDrive - California Institute of Technology\Desktop\Big James\06272024_resorufin_spEC_test\
	Host : 10.8.34.190
Device : VMP3 (SN 1026)
Address : 131.215.231.69
EC-Lab for windows v11.50 (software)
Internet server v11.52 (firmware)
Command interpretor v11.50 (firmware)
Electrode material : Au/Pd
Initial state :
Electrolyte : NaCl (0.2M)
Comments : Fe(CN)63-/Fe(CN)64- 5.10-3 M
Reference electrode : SCE Saturated Calomel Electrode (0.241 V)
Electrode surface area : 0.001 cm²
Characteristic mass : 0.001 g
Equivalent Weight : 0.000 g/eq.
Density : 0.000 g/cm3
Volume (V) : 0.001 cm³
Cycle Definition : Charge/Discharge alternance
Ei (V)              0.000
vs.                 Eoc
dE/dt               6.000
dE/dt unit          mV/s
E1 (V)              1.000
vs.                 Ref
Step percent        50
N                   10
E range min (V)     -2.500
E range max (V)     2.500
I Range             Auto
I Range min         Unset
I Range max         Unset
I Range init        Unset
Bandwidth           5
E2 (V)              -1.000
vs.                 Ref
nc cycles           5
Reverse Scan        1
Ef (V)              0.000
vs.                 Eoc

mode	ox/red	error	control changes	counter inc.	time/s	control/V	Ewe/V	<I>/mA	cycle number	(Q-Qo)/C	I Range	step time/s	P/W
2	1	0	0	0	4086.88	-0.410404	-0.411338	0.00837839	1	0.0000000E+000	13	0.000000000000000E+000	-3.44635e-06
2	0	0	1	0	4093.47	-0.370845	-0.371652	0.0109221	1	1.53404e-05	13	6.0014	-4.0592e-06
2	0	0	1	0	4100.14	-0.330837	-0.332162	0.015182	1	6.36547e-05	13	12.6694	-5.04288e-06
2	1	0	1	0	4106.81	-0.290828	-0.292111	0.0202817	1	0.000143605	13	19.3376	-5.92451e-06
2	1	0	1	0	4113.48	-0.25082	-0.251789	0.0258553	1	0.000254385	13	26.0056	-6.51008e-06
2	1	0	1	0	4120.15	-0.210811	-0.211736	0.0303967	1	0.000395268	13	32.6738	-6.43607e-06
2	1	0	1	0	4126.81	-0.170803	-0.172168	0.0338748	1	0.000565415	13	39.3418	-5.83215e-06
2	1	0	1	0	4133.48	-0.130793	-0.132123	0.0348525	1	0.00076403	13	46.01	-4.60483e-06
2	1	0	1	0	4140.15	-0.0907854	-0.0923598	0.0370603	1	0.000990537	13	52.678	-3.42288e-06
2	1	0	1	0	4146.82	-0.0507763	-0.0521358	0.0375954	1	0.00124437	13	59.3462	-1.96007e-06
2	1	0	1	0	4153.49	-0.0107682	-0.0127914	0.0388945	1	0.00152372	13	66.0142	-4.97513e-07
2	1	0	1	0	4160.15	0.0292409	0.0280077	0.0465391	1	0.0018263	13	72.6824	1.30345e-06
2	1	0	1	0	4166.82	0.0692495	0.0676658	0.0493427	1	0.00215013	13	79.3505	3.33881e-06
2	1	0	1	0	4173.49	0.109258	0.106838	0.0535114	1	0.0024935	13	86.0186	5.71703e-06
2	1	0	1	0	4180.16	0.149267	0.148498	0.0593275	1	0.00285418	13	92.6867	8.81e-06
2	1	0	1	0	4186.83	0.189275	0.188164	0.0600601	1	0.00323004	13	99.3548	1.13012e-05
2	1	0	1	0	4193.49	0.229284	0.227346	0.0598278	1	0.00361926	13	106.023	1.36016e-05
2	1	0	1	0	4200.16	0.269292	0.267739	0.0610616	1	0.00402047	13	112.691	1.63486e-05
2	1	0	1	0	4206.83	0.309302	0.308114	0.0626294	1	0.00443287	13	119.359	1.9297e-05
2	1	0	1	0	4213.5	0.34931	0.348091	0.0641567	1	0.00485609	13	126.027	2.23324e-05
2	1	0	1	0	4220.17	0.389319	0.387733	0.0655985	1	0.00529005	13	132.695	2.54347e-05
2	1	0	1	0	4226.84	0.429327	0.427766	0.0675612	1	0.00573474	13	139.363	2.89004e-05
2	1	0	1	0	4233.5	0.469336	0.468009	0.0691741	1	0.00619022	13	146.032	3.23741e-05
2	1	0	1	0	4240.17	0.509344	0.506966	0.0671381	1	0.00665638	13	152.7	3.40367e-05
2	1	0	1	0	4246.84	0.549353	0.547745	0.0698959	1	0.00713318	13	159.368	3.82851e-05
2	1	0	1	0	4253.51	0.589362	0.588265	0.073806	1	0.00762037	13	166.036	4.34175e-05
2	1	0	1	0	4260.18	0.62937	0.627989	0.0755117	1	0.0081177	13	172.704	4.74205e-05
2	1	0	1	0	4266.84	0.669379	0.667715	0.0763253	1	0.00862501	13	179.372	5.09635e-05
2	1	0	1	0	4273.51	0.709388	0.708223	0.0806843	1	0.00914217	13	186.04	5.71424e-05
2	1	0	1	0	4280.18	0.749396	0.748311	0.0816712	1	0.00966902	13	192.708	6.11155e-05
2	1	0	1	0	4286.85	0.789405	0.788155	0.0810522	1	0.0102055	13	199.376	6.38817e-05
2	1	0	1	0	4293.52	0.829414	0.828156	0.0830564	1	0.0107518	13	206.045	6.87836e-05
2	1	0	1	0	4300.18	0.869422	0.867029	0.080978	1	0.0113082	13	212.713	7.02103e-05
2	1	0	1	0	4306.85	0.909431	0.908398	0.0856569	1	0.0118749	13	219.381	7.78106e-05
2	1	0	1	0	4313.52	0.949439	0.947831	0.0868533	1	0.0124518	13	226.049	8.23222e-05
2	1	0	1	0	4320.19	0.989448	0.988053	0.0908519	1	0.0130392	13	232.717	8.97665e-05
2	1	0	1	0	4326.71	0.971444	0.969946	0.0863763	1	0.0136138	13	239.236	8.37804e-05
2	1	0	1	0	4333.38	0.931436	0.930379	0.083064	1	0.0141799	13	245.904	7.7281e-05
2	1	0	1	0	4340.04	0.891427	0.889913	0.0788546	1	0.014726	13	252.572	7.01737e-05
2	1	0	1	0	4346.71	0.851419	0.850143	0.0780517	1	0.0152536	13	259.24	6.63551e-05
2	1	0	1	0	4353.38	0.81141	0.809824	0.0749496	1	0.0157639	13	265.908	6.0696e-05
2	1	0	1	0	4360.05	0.771401	0.769589	0.0744954	1	0.0162574	13	272.576	5.73308e-05
2	1	0	1	0	4366.72	0.731392	0.730852	0.0737364	1	0.0167345	13	279.244	5.38904e-05
2	1	0	1	0	4373.38	0.691384	0.690678	0.0713814	1	0.0171956	13	285.912	4.93016e-05
2	1	0	1	0	4380.05	0.651375	0.649699	0.0681433	1	0.0176408	13	292.58	4.42726e-05
2	1	0	1	0	4386.72	0.611366	0.610112	0.0653488	1	0.0180701	13	299.249	3.98701e-05
2	1	0	1	0	4393.39	0.571358	0.569547	0.0615339	1	0.0184837	13	305.917	3.50465e-05
2	1	0	1	0	4400.06	0.531349	0.529677	0.0585055	1	0.0188815	13	312.585	3.0989e-05
2	1	0	1	0	4406.72	0.491341	0.489742	0.0559733	1	0.0192637	13	319.253	2.74125e-05
2	1	0	1	0	4413.39	0.451331	0.449661	0.0537517	1	0.0196301	13	325.921	2.417e-05
2	1	0	1	0	4420.06	0.411324	0.410009	0.0519376	1	0.0199809	13	332.589	2.12949e-05
2	1	0	1	0	4426.73	0.371315	0.370001	0.0493165	1	0.0203159	13	339.257	1.82472e-05
2	1	0	1	0	4433.4	0.331306	0.330744	0.0455184	1	0.0206349	13	345.925	1.50549e-05
2	1	0	1	0	4440.07	0.291297	0.28931	0.0413651	1	0.020938	13	352.593	1.19673e-05
2	1	0	1	0	4446.73	0.251289	0.248882	0.0382709	1	0.0212248	13	359.261	9.52492e-06
2	1	0	1	0	4453.4	0.21128	0.20894	0.0356294	1	0.0214953	13	365.93	7.44439e-06
2	1	0	1	0	4460.07	0.171271	0.169795	0.0335089	1	0.0217491	13	372.598	5.68965e-06
2	1	0	1	0	4466.74	0.131263	0.12948	0.0320062	1	0.0219861	13	379.266	4.14417e-06
2	1	0	1	0	4473.41	0.0912544	0.0901112	0.0311341	1	0.0222058	13	385.934	2.80553e-06
2	1	0	1	0	4480.07	0.0512456	0.0498664	0.0285069	1	0.022408	13	392.602	1.42154e-06
2	1	0	1	0	4486.74	0.0112366	0.0100331	0.0250096	1	0.0225919	13	399.27	2.50923e-07
2	1	0	1	0	4493.41	-0.0287714	-0.030562	0.0221816	1	0.0227568	13	405.938	-6.77913e-07
2	1	0	1	0	4500.08	-0.0687807	-0.0700225	0.0196706	1	0.0229015	13	412.606	-1.37738e-06
2	1	0	1	0	4506.75	-0.108789	-0.111543	0.0168123	1	0.023025	13	419.274	-1.87529e-06
2	1	0	1	0	4513.41	-0.148798	-0.149767	0.0206756	1	0.0231272	13	425.943	-3.09653e-06
2	1	0	1	0	4520.08	-0.188806	-0.190568	0.0134889	1	0.023209	13	432.611	-2.57055e-06
2	1	0	1	0	4526.75	-0.228815	-0.230254	0.00991643	1	0.0232713	13	439.279	-2.2833e-06
2	0	0	1	0	4533.42	-0.268823	-0.270836	-0.000444889	1	0.0233132	13	445.947	1.20492e-07
2	1	0	1	0	4540.09	-0.308832	-0.310332	-0.00386914	1	0.0233338	13	452.615	1.20072e-06
2	1	0	1	0	4546.75	-0.348841	-0.350254	-0.00426923	1	0.0233332	13	3.3341	1.49531e-06
2	1	0	1	0	4553.42	-0.388849	-0.390209	-0.00596303	1	0.0233118	13	10.0022	2.32683e-06
2	0	0	1	0	4560.09	-0.428858	-0.43014	-0.00814589	1	0.0232695	13	16.6703	3.50387e-06
2	0	0	1	0	4566.76	-0.468867	-0.470931	-0.0114589	1	0.0232055	13	23.3384	5.39637e-06
2	0	0	1	0	4573.43	-0.508876	-0.509759	-0.00948436	1	0.0231186	13	30.0066	4.83474e-06
2	0	0	1	0	4580.1	-0.548884	-0.550571	-0.017596	1	0.0230076	13	36.6746	9.68783e-06
2	0	0	1	0	4586.76	-0.588893	-0.59048	-0.022459	1	0.0228714	13	43.3428	1.32616e-05
2	0	0	1	0	4593.43	-0.628901	-0.63033	-0.0256802	1	0.0227095	13	50.0108	1.6187e-05
2	0	0	1	0	4600.1	-0.66891	-0.670756	-0.0334844	1	0.022521	13	56.679	2.24599e-05
2	0	0	1	0	4606.77	-0.708918	-0.71089	-0.0381911	1	0.0223054	13	63.347	2.71496e-05
2	0	0	1	0	4613.44	-0.748928	-0.750616	-0.0389504	1	0.0220622	13	70.0152	2.92368e-05
2	0	0	1	0	4620.1	-0.788935	-0.790326	-0.0425744	1	0.0217909	13	76.6832	3.36477e-05
2	0	0	1	0	4626.77	-0.828945	-0.830256	-0.0470526	1	0.0214907	13	83.3514	3.90657e-05
2	0	0	1	0	4633.44	-0.868953	-0.870609	-0.0522615	1	0.0211605	13	90.0194	4.54994e-05
2	0	0	1	0	4640.11	-0.908962	-0.910475	-0.0538722	1	0.0207983	13	96.6876	4.90493e-05
2	0	0	1	0	4646.78	-0.948971	-0.950104	-0.0566237	1	0.0204008	13	103.356	5.37984e-05
2	0	0	1	0	4653.44	-0.988979	-0.98972	-0.0631234	1	0.0199641	13	110.024	6.24745e-05
2	0	0	1	1	4659.88	-0.972476	-0.974272	-0.0634185	1	0.0195226	13	116.459	6.17869e-05
2	0	0	1	1	4666.55	-0.932467	-0.934234	-0.057375	1	0.0191082	13	123.127	5.36017e-05
2	0	0	1	1	4673.22	-0.892459	-0.894055	-0.0513664	1	0.0187377	13	129.795	4.59244e-05
2	0	0	1	1	4679.88	-0.85245	-0.854089	-0.0459518	1	0.018408	13	136.463	3.92469e-05
2	0	0	1	1	4686.55	-0.812441	-0.814091	-0.0411772	1	0.0181163	13	143.131	3.3522e-05
2	0	0	1	1	4693.22	-0.772432	-0.773828	-0.0353238	1	0.0178604	13	149.8	2.73345e-05
2	0	0	1	1	4699.89	-0.732424	-0.734625	-0.034688	1	0.0176391	13	156.468	2.54826e-05
2	0	0	1	1	4706.56	-0.692415	-0.693855	-0.0285637	1	0.0174512	13	163.136	1.98191e-05
2	0	0	1	1	4713.22	-0.652406	-0.653938	-0.0213354	1	0.0172958	13	169.804	1.3952e-05
2	0	0	1	1	4719.89	-0.612398	-0.613744	-0.0161102	1	0.0171723	13	176.472	9.88756e-06
2	0	0	1	1	4726.56	-0.572389	-0.573865	-0.0117273	1	0.0170798	13	183.14	6.72988e-06
2	0	0	1	1	4733.23	-0.532381	-0.534096	-0.00767626	1	0.0170176	13	189.808	4.09986e-06
2	1	0	1	1	4739.9	-0.492372	-0.495052	-0.0022429	1	0.0169851	13	196.476	1.11035e-06
2	1	0	1	1	4746.57	-0.452364	-0.453266	0.00579308	1	0.0169821	13	2.5005	-2.6258e-06
2	1	0	1	1	4753.23	-0.412354	-0.413558	0.0118487	1	0.0170082	13	9.1687	-4.90014e-06
2	1	0	1	1	4759.65	-0.373846	-0.374894	0.0158723	2	0.0170604	13	15.5867	-5.95041e-06
2	1	0	1	1	4766.32	-0.333837	-0.335274	0.0194165	2	0.017142	13	22.2549	-6.50986e-06
2	1	0	1	1	4772.99	-0.293829	-0.29527	0.0214385	2	0.0172507	13	28.9229	-6.33014e-06
2	1	0	1	1	4779.66	-0.25382	-0.255596	0.0246401	2	0.0173862	13	35.5911	-6.29791e-06
2	1	0	1	1	4786.32	-0.213812	-0.215515	0.0279022	2	0.0175483	13	42.2591	-6.01334e-06
2	1	0	1	1	4792.99	-0.173803	-0.175314	0.0317516	2	0.0177371	13	48.9273	-5.5665e-06
2	1	0	1	1	4799.66	-0.133795	-0.135847	0.0305357	2	0.0179524	13	55.5953	-4.14818e-06
2	1	0	1	1	4806.33	-0.0937854	-0.0952356	0.0335128	2	0.0181944	13	62.2635	-3.19161e-06
2	1	0	1	1	4813	-0.0537775	-0.0551772	0.0411889	2	0.0184633	13	68.9315	-2.27269e-06
2	1	0	1	1	4819.66	-0.0137684	-0.0149702	0.049071	2	0.0187577	13	75.5997	-7.34602e-07
2	1	0	1	1	4826.33	0.0262398	0.0251051	0.053441	2	0.0190752	13	82.2677	1.34164e-06
2	1	0	1	1	4833	0.0662489	0.0645982	0.0524977	2	0.0194142	13	88.9359	3.39126e-06
2	1	0	1	1	4839.67	0.106257	0.104821	0.0557096	2	0.0197732	13	95.604	5.83951e-06
2	1	0	1	1	4846.34	0.146266	0.144771	0.0536624	2	0.0201499	13	102.272	7.76877e-06
2	1	0	1	1	4853	0.186275	0.184875	0.0598983	2	0.020542	13	108.94	1.10737e-05
2	1	0	1	1	4859.67	0.226283	0.224005	0.0615942	2	0.0209471	13	115.608	1.37974e-05
2	1	0	1	1	4866.34	0.266292	0.264881	0.0664946	2	0.0213632	13	122.276	1.76132e-05
2	1	0	1	1	4873.01	0.3063	0.304494	0.06538	2	0.0217891	13	128.944	1.99078e-05
2	1	0	1	1	4879.68	0.34631	0.344888	0.0658755	2	0.022224	13	135.613	2.27196e-05
2	1	0	1	1	4886.35	0.386318	0.384729	0.066893	2	0.0226676	13	142.281	2.57357e-05
2	1	0	1	1	4893.01	0.426327	0.424832	0.0686095	2	0.0231198	13	148.949	2.91476e-05
2	1	0	1	1	4899.68	0.466335	0.464972	0.0697576	2	0.0235806	13	155.617	3.24353e-05
2	1	0	1	1	4906.35	0.506344	0.504022	0.0675527	2	0.0240502	13	162.285	3.4048e-05
2	1	0	1	1	4913.02	0.546352	0.544621	0.0709827	2	0.0245288	13	168.953	3.86587e-05
2	1	0	1	1	4919.69	0.586361	0.584574	0.0737999	2	0.0250166	13	175.621	4.31415e-05
2	1	0	1	1	4926.35	0.62637	0.625034	0.0751155	2	0.0255136	13	182.289	4.69497e-05
2	1	0	1	1	4933.02	0.666378	0.664782	0.076312	2	0.0260199	13	188.957	5.07308e-05
2	1	0	1	1	4939.69	0.706387	0.705718	0.0813276	2	0.0265354	13	195.626	5.73944e-05
2	1	0	1	1	4946.36	0.746396	0.744506	0.0796605	2	0.0270604	13	202.294	5.93077e-05
2	1	0	1	1	4953.03	0.786404	0.784765	0.0805807	2	0.0275948	13	208.962	6.32369e-05
2	1	0	1	1	4959.69	0.826413	0.824924	0.0824493	2	0.0281387	13	215.63	6.80144e-05
2	1	0	1	1	4966.36	0.866422	0.864829	0.0836292	2	0.0286925	13	222.298	7.2325e-05
2	1	0	1	1	4973.03	0.90643	0.904916	0.0850815	2	0.0292562	13	228.966	7.69916e-05
2	1	0	1	1	4979.7	0.946439	0.945192	0.0879082	2	0.0298299	13	235.634	8.30901e-05
2	1	0	1	1	4986.37	0.986447	0.98562	0.0909533	2	0.0304134	13	242.302	8.96454e-05
2	1	0	1	1	4992.89	0.974445	0.972944	0.0859552	2	0.0309853	13	248.821	8.36296e-05
2	1	0	1	1	4999.55	0.934436	0.933122	0.0829964	2	0.0315482	13	255.489	7.74458e-05
2	1	0	1	1	5006.22	0.894428	0.892762	0.0797474	2	0.03209	13	262.157	7.11955e-05
2	1	0	1	1	5012.89	0.854419	0.853388	0.0768713	2	0.0326124	13	268.825	6.56011e-05
2	1	0	1	1	5019.56	0.814411	0.812762	0.073449	2	0.0331166	13	275.493	5.96966e-05
2	1	0	1	1	5026.23	0.774401	0.772636	0.0706652	2	0.0336035	13	282.161	5.45985e-05
2	1	0	1	1	5032.89	0.734393	0.733236	0.0692897	2	0.0340735	13	288.83	5.08057e-05
2	1	0	1	1	5039.56	0.694384	0.693084	0.0670785	2	0.0345271	13	295.498	4.64911e-05
2	1	0	1	1	5046.23	0.654376	0.65276	0.0639947	2	0.0349645	13	302.166	4.17732e-05
2	1	0	1	1	5052.9	0.614367	0.613655	0.0654637	2	0.0353859	13	308.834	4.01721e-05
2	1	0	1	1	5059.57	0.574359	0.57269	0.0596584	2	0.0357915	13	315.502	3.41658e-05
2	1	0	1	1	5066.23	0.53435	0.533026	0.0577388	2	0.0361813	13	322.17	3.07763e-05
2	1	0	1	1	5072.9	0.494341	0.492582	0.0524515	2	0.0365555	13	328.838	2.58367e-05
2	1	0	1	1	5079.57	0.454333	0.45265	0.0495278	2	0.036914	13	335.506	2.24188e-05
2	1	0	1	1	5086.24	0.414324	0.412663	0.0477176	2	0.037257	13	342.174	1.96913e-05
2	1	0	1	1	5092.91	0.374316	0.372718	0.0461711	2	0.0375844	13	348.842	1.72088e-05
2	1	0	1	1	5099.58	0.334306	0.332814	0.0434437	2	0.037896	13	355.511	1.44587e-05
2	1	0	1	1	5106.24	0.294298	0.292825	0.0403898	2	0.0381918	13	362.179	1.18271e-05
2	1	0	1	1	5112.91	0.254289	0.252554	0.0374384	2	0.0384718	13	368.847	9.45523e-06
2	1	0	1	1	5119.58	0.214281	0.212527	0.0349672	2	0.0387356	13	375.515	7.43147e-06
2	1	0	1	1	5126.25	0.174272	0.171963	0.0321575	2	0.0389833	13	382.183	5.5299e-06
2	1	0	1	1	5132.92	0.134263	0.133782	0.0325865	2	0.0392144	13	388.851	4.35948e-06
2	1	0	1	1	5139.58	0.0942549	0.0929271	0.0312921	2	0.0394288	13	395.519	2.90789e-06
2	1	0	1	1	5146.25	0.0542463	0.052918	0.0288856	2	0.0396259	13	402.187	1.52857e-06
2	1	0	1	1	5152.92	0.0142376	0.0125386	0.0256957	2	0.0398053	13	408.855	3.22188e-07
2	1	0	1	1	5159.59	-0.0257714	-0.0274954	0.0233301	2	0.0399661	13	415.524	-6.41469e-07
2	1	0	1	1	5166.26	-0.0657795	-0.0674944	0.023118	2	0.0401068	13	422.192	-1.56034e-06
2	1	0	1	1	5172.92	-0.105789	-0.107095	0.0221689	2	0.0402262	13	428.86	-2.37417e-06
2	1	0	1	1	5179.59	-0.145797	-0.1472	0.0191954	2	0.0403238	13	435.528	-2.82555e-06
2	1	0	1	1	5186.26	-0.185806	-0.187433	0.0151536	2	0.0404011	13	442.196	-2.84028e-06
2	1	0	1	1	5192.93	-0.225814	-0.227552	0.0108184	2	0.0404604	13	448.864	-2.46176e-06
2	1	0	1	1	5199.6	-0.265823	-0.267374	0.00673603	2	0.0405013	13	455.532	-1.80104e-06
2	0	0	1	1	5206.26	-0.305831	-0.307777	-0.00147436	2	0.0405221	13	462.2	4.53776e-07
2	1	0	1	1	5212.93	-0.34584	-0.347196	-0.00588229	2	0.040523	13	2.834	2.04231e-06
2	0	0	1	1	5219.6	-0.385848	-0.387379	-0.00509436	2	0.0405042	13	9.502	1.97344e-06
2	1	0	1	1	5226.27	-0.425857	-0.426887	-0.00245624	2	0.0404655	13	16.1702	1.04854e-06
2	0	0	1	1	5232.94	-0.465866	-0.467648	-0.00752962	2	0.0404062	13	22.8383	3.52121e-06
2	0	0	1	1	5239.61	-0.505875	-0.507519	-0.0137273	2	0.0403253	13	29.5064	6.96688e-06
2	0	0	1	1	5246.27	-0.545883	-0.547484	-0.0171858	2	0.0402215	13	36.1745	9.40892e-06
2	0	0	1	1	5252.94	-0.585892	-0.587376	-0.0206342	2	0.040094	13	42.8426	1.212e-05
2	0	0	1	1	5259.61	-0.625901	-0.627402	-0.024473	2	0.039942	13	49.5108	1.53544e-05
2	0	0	1	1	5266.28	-0.665909	-0.667637	-0.0285786	2	0.0397646	13	56.1788	1.90802e-05
2	0	0	1	1	5272.95	-0.705918	-0.707543	-0.0323476	2	0.0395614	13	62.847	2.28873e-05
2	0	0	1	1	5279.61	-0.745926	-0.747348	-0.0360369	2	0.0393317	13	69.515	2.69321e-05
2	0	0	1	1	5286.28	-0.785936	-0.78755	-0.0404099	2	0.039075	13	76.1832	3.18248e-05
2	0	0	1	1	5292.95	-0.825944	-0.827573	-0.0448605	2	0.0387904	13	82.8512	3.71254e-05
2	0	0	1	1	5299.62	-0.865953	-0.867742	-0.0489995	2	0.0384769	13	89.5194	4.25189e-05
2	0	0	1	1	5306.29	-0.905961	-0.907718	-0.0525753	2	0.0381323	13	96.1874	4.77235e-05
2	0	0	1	1	5312.95	-0.94597	-0.947755	-0.0569634	2	0.0377524	13	102.856	5.39874e-05
2	0	0	1	1	5319.62	-0.985979	-0.987764	-0.0638204	2	0.0373343	13	109.524	6.30395e-05
2	0	0	1	0	5326.06	-0.975476	-0.977214	-0.0635522	2	0.0369082	13	115.959	6.21041e-05
2	0	0	1	0	5332.73	-0.935468	-0.937275	-0.0570873	2	0.0365063	13	122.627	5.35065e-05
2	0	0	1	0	5339.39	-0.895459	-0.896864	-0.0503825	2	0.036147	13	129.295	4.51862e-05
2	0	0	1	0	5346.06	-0.855451	-0.856794	-0.0450117	2	0.0358274	13	135.963	3.85657e-05
2	0	0	1	0	5352.73	-0.815442	-0.817574	-0.0445103	2	0.0355445	13	142.631	3.63905e-05
2	0	0	1	0	5359.4	-0.775433	-0.77743	-0.0401801	2	0.0352961	13	149.299	3.12372e-05
2	0	0	1	0	5366.07	-0.735424	-0.736807	-0.032567	2	0.035081	13	155.968	2.39956e-05
2	0	0	1	0	5372.73	-0.695416	-0.696754	-0.0251324	2	0.034898	13	162.636	1.75111e-05
2	0	0	1	0	5379.4	-0.655407	-0.657839	-0.0193425	2	0.0347465	13	169.304	1.27243e-05
2	0	0	1	0	5386.07	-0.615398	-0.617248	-0.0146015	2	0.0346255	13	175.972	9.01276e-06
2	0	0	1	0	5392.74	-0.57539	-0.576791	-0.0110145	2	0.0345345	13	182.64	6.35308e-06
2	1	0	1	0	5399.41	-0.535381	-0.536664	-0.00923924	2	0.0344728	13	189.308	4.95836e-06
2	0	0	1	0	5406.08	-0.495373	-0.497053	-0.00334887	2	0.03444	13	195.976	1.66457e-06
2	0	0	1	0	5412.74	-0.455364	-0.456756	0.00544495	2	0.034436	13	2.1672	-2.48701e-06
2	1	0	1	0	5419.41	-0.415356	-0.417075	0.0056996	2	0.0344604	13	8.8352	-2.37716e-06
2	1	0	1	0	5425.83	-0.376847	-0.377365	0.00873684	3	0.0345104	13	15.2533	-3.29698e-06
2	1	0	1	0	5432.5	-0.336838	-0.338196	0.00951913	3	0.0345885	13	21.9214	-3.21933e-06
2	1	0	1	0	5439.17	-0.296829	-0.298511	0.0160624	3	0.0346925	13	28.5896	-4.79481e-06
2	1	0	1	0	5445.83	-0.256821	-0.257601	0.0283419	3	0.0348221	13	35.2576	-7.30089e-06
2	1	0	1	0	5452.5	-0.216812	-0.218486	0.0265959	3	0.0349771	13	41.9258	-5.81084e-06
2	1	0	1	0	5459.17	-0.176804	-0.178602	0.0231337	3	0.0351576	13	48.5938	-4.13173e-06
2	1	0	1	0	5465.84	-0.136795	-0.138212	0.0299339	3	0.0353637	13	55.262	-4.13721e-06
2	1	0	1	0	5472.51	-0.0967867	-0.0985977	0.0352361	3	0.0355956	13	61.93	-3.4742e-06
2	1	0	1	0	5479.17	-0.0567776	-0.0577115	0.0469233	3	0.0358534	13	68.5982	-2.70801e-06
2	1	0	1	0	5485.84	-0.0167694	-0.0185242	0.0453984	3	0.036136	13	75.2662	-8.40968e-07
2	1	0	1	0	5492.51	0.0232396	0.0219437	0.0480558	3	0.0364412	13	81.9344	1.05452e-06
2	1	0	1	0	5499.18	0.0632483	0.0616283	0.0452645	3	0.0367671	13	88.6025	2.78957e-06
2	1	0	1	0	5505.85	0.103257	0.101965	0.0528764	3	0.0371123	13	95.2706	5.39156e-06
2	1	0	1	0	5512.51	0.143265	0.140715	0.0555811	3	0.0374751	13	101.939	7.82112e-06
2	1	0	1	0	5519.18	0.183274	0.181466	0.0590425	3	0.037853	13	108.607	1.07142e-05
2	1	0	1	0	5525.85	0.223283	0.221636	0.0596073	3	0.0382442	13	115.275	1.32111e-05
2	1	0	1	0	5532.52	0.263291	0.26217	0.0590567	3	0.0386466	13	121.943	1.54829e-05
2	1	0	1	0	5539.19	0.3033	0.301457	0.0597414	3	0.0390591	13	128.611	1.80095e-05
2	1	0	1	0	5545.86	0.343308	0.341803	0.0639802	3	0.0394811	13	135.279	2.18686e-05
2	1	0	1	0	5552.52	0.383318	0.381652	0.0648065	3	0.0399122	13	141.947	2.47335e-05
2	1	0	1	0	5559.19	0.423325	0.421905	0.0688506	3	0.0403523	13	148.615	2.90484e-05
2	1	0	1	0	5565.86	0.463335	0.462019	0.0710553	3	0.0408013	13	155.284	3.28289e-05
2	1	0	1	0	5572.53	0.503343	0.502003	0.0705675	3	0.0412593	13	161.952	3.54251e-05
2	1	0	1	0	5579.2	0.543352	0.541766	0.0706612	3	0.0417263	13	168.62	3.82818e-05
2	1	0	1	0	5585.86	0.583361	0.581781	0.071847	3	0.0422024	13	175.288	4.17992e-05
2	1	0	1	0	5592.53	0.623369	0.62207	0.0738623	3	0.0426876	13	181.956	4.59476e-05
2	1	0	1	0	5599.2	0.663378	0.661795	0.0728971	3	0.0431821	13	188.624	4.82429e-05
2	1	0	1	0	5605.87	0.703386	0.701962	0.0763639	3	0.0436857	13	195.292	5.36046e-05
2	1	0	1	0	5612.54	0.743395	0.741813	0.0772064	3	0.0441984	13	201.96	5.72728e-05
2	1	0	1	0	5619.2	0.783404	0.782819	0.0821744	3	0.04472	13	208.628	6.43277e-05
2	1	0	1	0	5625.87	0.823413	0.821652	0.08074	3	0.0452507	13	215.297	6.63401e-05
2	1	0	1	0	5632.54	0.86342	0.861885	0.0816937	3	0.0457905	13	221.965	7.04106e-05
2	1	0	1	0	5639.21	0.90343	0.901701	0.0799527	3	0.0463396	13	228.633	7.20934e-05
2	1	0	1	0	5645.88	0.943438	0.942227	0.0846418	3	0.0468982	13	235.301	7.97518e-05
2	1	0	1	0	5652.55	0.983447	0.982237	0.0880979	3	0.0474667	13	241.969	8.6533e-05
2	1	0	1	0	5659.06	0.977445	0.975975	0.0845002	3	0.0480262	13	248.488	8.247e-05
2	1	0	1	0	5665.73	0.937437	0.936196	0.081622	3	0.0485777	13	255.156	7.64143e-05
2	1	0	1	0	5672.4	0.897428	0.89522	0.0749287	3	0.0491087	13	261.824	6.70777e-05
2	1	0	1	0	5679.07	0.85742	0.855782	0.073382	3	0.0496207	13	268.492	6.2799e-05
2	1	0	1	0	5685.74	0.81741	0.816192	0.0725339	3	0.0501152	13	275.16	5.92016e-05
2	1	0	1	0	5692.4	0.777403	0.776	0.0705749	3	0.0505924	13	281.828	5.47661e-05
2	1	0	1	0	5699.07	0.737394	0.7352	0.068929	3	0.051053	13	288.496	5.06766e-05
2	1	0	1	0	5705.74	0.697385	0.695525	0.0656887	3	0.0514972	13	295.164	4.56882e-05
2	1	0	1	0	5712.41	0.657376	0.656105	0.063513	3	0.0519255	13	301.832	4.16712e-05
2	1	0	1	0	5719.08	0.617368	0.615709	0.0584045	3	0.0523379	13	308.5	3.59602e-05
2	1	0	1	0	5725.74	0.577359	0.575468	0.0584133	3	0.0527346	13	315.169	3.3615e-05
2	1	0	1	0	5732.41	0.53735	0.535708	0.0556672	3	0.0531157	13	321.837	2.98214e-05
2	1	0	1	0	5739.08	0.497342	0.49546	0.0538129	3	0.0534813	13	328.505	2.66621e-05
2	1	0	1	0	5745.75	0.457333	0.456761	0.0547214	3	0.0538316	13	335.173	2.49946e-05
2	1	0	1	0	5752.42	0.417325	0.415766	0.0503677	3	0.0541664	13	341.841	2.09412e-05
2	1	0	1	0	5759.09	0.377316	0.375745	0.0466006	3	0.0544858	13	348.509	1.751e-05
2	1	0	1	0	5765.75	0.337308	0.335613	0.0419022	3	0.0547897	13	355.177	1.40629e-05
2	1	0	1	0	5772.42	0.297298	0.29614	0.0418158	3	0.0550782	13	361.845	1.23833e-05
2	1	0	1	0	5779.09	0.25729	0.255768	0.0395863	3	0.0553509	13	368.513	1.01249e-05
2	1	0	1	0	5785.76	0.217281	0.216651	0.0409122	3	0.055608	13	375.182	8.86367e-06
2	1	0	1	0	5792.43	0.177273	0.175938	0.0351325	3	0.0558491	13	381.85	6.18115e-06
2	1	0	1	0	5799.09	0.137264	0.135887	0.0329881	3	0.0560741	13	388.518	4.48265e-06
2	1	0	1	0	5805.76	0.097256	0.095924	0.0306627	3	0.0562827	13	395.186	2.94129e-06
2	1	0	1	0	5812.43	0.0572469	0.0568396	0.0271571	3	0.0564746	13	401.854	1.5436e-06
2	1	0	1	0	5819.1	0.0172382	0.0150786	0.0205301	3	0.0566492	13	408.522	3.09564e-07
2	1	0	1	0	5825.77	-0.0227703	-0.0246069	0.0170711	3	0.0568057	13	415.19	-4.20067e-07
2	1	0	1	0	5832.43	-0.0627789	-0.064567	0.013306	3	0.0569426	13	421.858	-8.59129e-07
2	1	0	1	0	5839.1	-0.102788	-0.104931	0.00942903	3	0.0570586	13	428.526	-9.89394e-07
2	1	0	1	0	5845.77	-0.142797	-0.144712	0.00683445	3	0.0571529	13	435.195	-9.89027e-07
2	1	0	1	0	5852.44	-0.182805	-0.184361	0.00577911	3	0.0572268	13	441.863	-1.06544e-06
2	1	0	1	0	5859.11	-0.222814	-0.224193	0.0048255	3	0.0572838	13	448.531	-1.08185e-06
2	1	0	1	0	5865.78	-0.262822	-0.264234	0.00242667	3	0.0573238	13	455.199	-6.41208e-07
2	1	0	1	0	5872.44	-0.302831	-0.304195	-0.000582485	3	0.0573452	13	461.867	1.77189e-07
2	1	0	1	0	5879.11	-0.342839	-0.344552	-0.0045558	3	0.0573476	13	2.3338	1.56971e-06
2	1	0	1	0	5885.78	-0.382848	-0.384248	-0.00776155	3	0.0573313	13	9.002	2.98236e-06
2	0	0	1	0	5892.45	-0.422856	-0.42445	-0.00874753	3	0.0572959	13	15.67	3.71289e-06
2	0	0	1	0	5899.12	-0.462866	-0.464229	-0.00990513	3	0.057241	13	22.3382	4.59825e-06
2	0	0	1	0	5905.78	-0.502874	-0.504268	-0.0127228	3	0.0571654	13	29.0063	6.41572e-06
2	0	0	1	0	5912.45	-0.542883	-0.544206	-0.0161391	3	0.0570681	13	35.6744	8.783e-06
2	0	0	1	0	5919.12	-0.582892	-0.584338	-0.019698	3	0.0569482	13	42.3425	1.15103e-05
2	0	0	1	0	5925.79	-0.6229	-0.624486	-0.0234724	3	0.0568049	13	49.0106	1.46582e-05
2	0	0	1	0	5932.46	-0.662909	-0.664668	-0.0272247	3	0.0566373	13	55.6787	1.80954e-05
2	0	0	1	0	5939.12	-0.702917	-0.703757	-0.0257416	3	0.0564449	13	62.3468	1.81158e-05
2	0	0	1	0	5945.79	-0.742926	-0.744615	-0.0318279	3	0.0562269	13	69.015	2.36996e-05
2	0	0	1	0	5952.46	-0.782934	-0.784587	-0.0385805	3	0.0559827	13	75.683	3.02697e-05
2	0	0	1	0	5959.13	-0.822944	-0.824363	-0.0421517	3	0.0557115	13	82.3512	3.47483e-05
2	0	0	1	0	5965.8	-0.862952	-0.864248	-0.0494192	3	0.055412	13	89.0192	4.27105e-05
2	0	0	1	0	5972.46	-0.902961	-0.904774	-0.057447	3	0.0550819	13	95.6874	5.19765e-05
2	0	0	1	0	5979.13	-0.942969	-0.944783	-0.0612862	3	0.0547169	13	102.355	5.79021e-05
2	0	0	1	0	5985.8	-0.982978	-0.984327	-0.0659973	3	0.0543146	13	109.024	6.49629e-05
2	0	0	1	1	5992.24	-0.978477	-0.980267	-0.0633058	3	0.0539007	13	115.459	6.20566e-05
2	0	0	1	1	5998.9	-0.938468	-0.939892	-0.0559295	3	0.0535078	13	122.127	5.25677e-05
2	0	0	1	1	6005.57	-0.89846	-0.899747	-0.0498685	3	0.0531563	13	128.795	4.4869e-05
2	0	0	1	1	6012.24	-0.858451	-0.860089	-0.0447501	3	0.0528435	13	135.463	3.84891e-05
2	0	0	1	1	6018.91	-0.818442	-0.820509	-0.0377746	3	0.0525664	13	142.131	3.09944e-05
2	0	0	1	1	6025.58	-0.778434	-0.779694	-0.0287697	3	0.052323	13	148.799	2.24316e-05
2	0	0	1	1	6032.24	-0.738425	-0.740201	-0.0281426	3	0.0521116	13	155.467	2.08311e-05
2	0	0	1	1	6038.91	-0.698416	-0.700082	-0.0250607	3	0.0519313	13	162.136	1.75445e-05
2	0	0	1	1	6045.58	-0.658407	-0.660038	-0.0202918	3	0.0517814	13	168.804	1.33933e-05
2	0	0	1	1	6052.25	-0.618399	-0.619865	-0.0156552	3	0.0516611	13	175.472	9.70412e-06
2	0	0	1	1	6058.92	-0.57839	-0.579727	-0.011106	3	0.05157	13	182.14	6.43844e-06
2	0	0	1	1	6065.59	-0.538382	-0.539787	-0.00687252	3	0.0515072	13	188.808	3.7097e-06
2	0	0	1	1	6072.25	-0.498373	-0.499778	-0.00268093	3	0.0514727	13	195.476	1.33987e-06
2	1	0	1	1	6078.92	-0.458365	-0.459825	0.00134147	3	0.0514663	13	1.667	-6.16841e-07
2	1	0	1	1	6085.59	-0.418356	-0.420057	0.00535294	3	0.0514879	13	8.3352	-2.24854e-06
2	1	0	1	1	6092.01	-0.379848	-0.381635	0.00939305	4	0.0515346	13	14.7532	-3.58472e-06
2	1	0	1	1	6098.68	-0.339838	-0.341626	0.0135956	4	0.0516087	13	21.4214	-4.64461e-06
2	1	0	1	1	6105.34	-0.29983	-0.301382	0.0177889	4	0.0517078	13	28.0894	-5.36125e-06
2	1	0	1	1	6112.01	-0.259821	-0.261355	0.0217931	4	0.0518317	13	34.7576	-5.69574e-06
2	1	0	1	1	6118.68	-0.219813	-0.221351	0.0256482	4	0.0519803	13	41.4256	-5.67725e-06
2	1	0	1	1	6125.35	-0.179804	-0.181245	0.0293314	4	0.0521537	13	48.0938	-5.31618e-06
2	1	0	1	1	6132.02	-0.139796	-0.14114	0.032862	4	0.0523519	13	54.7618	-4.63812e-06
2	1	0	1	1	6138.68	-0.0997869	-0.101777	0.0316052	4	0.0525751	13	61.43	-3.21668e-06
2	1	0	1	1	6145.35	-0.0597787	-0.0615254	0.0327149	4	0.0528237	13	68.098	-2.0128e-06
2	1	0	1	1	6152.02	-0.0197697	-0.0213165	0.0383829	4	0.0530968	13	74.7662	-8.1819e-07
2	1	0	1	1	6158.69	0.0202391	0.0189868	0.0430946	4	0.053392	13	81.4343	8.18229e-07
2	1	0	1	1	6165.36	0.0602476	0.0587898	0.0459651	4	0.0537075	13	88.1024	2.70228e-06
2	1	0	1	1	6172.03	0.100256	0.0983333	0.0471142	4	0.0540419	13	94.7705	4.6329e-06
2	1	0	1	1	6178.69	0.140265	0.138562	0.0496105	4	0.0543936	13	101.439	6.87414e-06
2	1	0	1	1	6185.36	0.180273	0.178792	0.0521875	4	0.0547604	13	108.107	9.33069e-06
2	1	0	1	1	6192.03	0.220282	0.219039	0.0568847	4	0.0551403	13	114.775	1.24599e-05
2	1	0	1	1	6198.7	0.260291	0.258847	0.0595868	4	0.0555318	13	121.443	1.54238e-05
2	1	0	1	1	6205.37	0.300299	0.298687	0.0605504	4	0.0559335	13	128.111	1.80856e-05
2	1	0	1	1	6212.03	0.340308	0.339229	0.06578	4	0.0563446	13	134.779	2.23145e-05
2	1	0	1	1	6218.7	0.380316	0.378571	0.0636478	4	0.0567645	13	141.447	2.40952e-05
2	1	0	1	1	6225.37	0.420326	0.418823	0.0646292	4	0.0571928	13	148.115	2.70682e-05
2	1	0	1	1	6232.04	0.460334	0.458995	0.0664839	4	0.0576297	13	154.783	3.05158e-05
2	1	0	1	1	6238.71	0.500343	0.498581	0.0647028	4	0.0580752	13	161.452	3.22596e-05
2	1	0	1	1	6245.37	0.540351	0.538794	0.0669464	4	0.0585292	13	168.12	3.60704e-05
2	1	0	1	1	6252.04	0.58036	0.578907	0.0700652	4	0.0589915	13	174.788	4.05612e-05
2	1	0	1	1	6258.71	0.620368	0.619779	0.0744173	4	0.0594618	13	181.456	4.61222e-05
2	1	0	1	1	6265.38	0.660377	0.658817	0.0720747	4	0.0599401	13	188.124	4.7484e-05
2	1	0	1	1	6272.05	0.700386	0.698009	0.0702486	4	0.0604269	13	194.792	4.90341e-05
2	1	0	1	1	6278.71	0.740394	0.739074	0.07518	4	0.0609226	13	201.46	5.55636e-05
2	1	0	1	1	6285.38	0.780403	0.777932	0.0768883	4	0.0614273	13	208.128	5.98139e-05
2	1	0	1	1	6292.05	0.820411	0.818762	0.0784446	4	0.0619414	13	214.796	6.42275e-05
2	1	0	1	1	6298.72	0.860421	0.85898	0.0790798	4	0.0624653	13	221.465	6.7928e-05
2	1	0	1	1	6305.39	0.900428	0.89916	0.0806461	4	0.0629992	13	228.133	7.25138e-05
2	1	0	1	1	6312.06	0.940438	0.938894	0.0808922	4	0.0635432	13	234.801	7.59492e-05
2	1	0	1	1	6318.72	0.980446	0.979098	0.0836898	4	0.0640975	13	241.469	8.19405e-05
2	1	0	1	1	6325.24	0.980446	0.978987	0.0848839	4	0.0646447	13	247.987	8.31002e-05
2	1	0	1	1	6331.91	0.940437	0.938967	0.0794544	4	0.0651854	13	254.655	7.46051e-05
2	1	0	1	1	6338.58	0.900429	0.898193	0.0734272	4	0.0657061	13	261.324	6.59518e-05
2	1	0	1	1	6345.25	0.86042	0.858882	0.0741312	4	0.0662084	13	267.992	6.367e-05
2	1	0	1	1	6351.91	0.820412	0.818216	0.0719112	4	0.0666935	13	274.66	5.88388e-05
2	1	0	1	1	6358.58	0.780402	0.778513	0.0694834	4	0.067162	13	281.328	5.40937e-05
2	1	0	1	1	6365.25	0.740395	0.739057	0.0671731	4	0.0676145	13	287.996	4.96448e-05
2	1	0	1	1	6371.92	0.700385	0.698626	0.0630772	4	0.0680514	13	294.664	4.40674e-05
2	1	0	1	1	6378.59	0.660377	0.658868	0.0618728	4	0.0684726	13	301.332	4.0766e-05
2	1	0	1	1	6385.26	0.620368	0.619615	0.0627967	4	0.0688784	13	308	3.89098e-05
2	1	0	1	1	6391.92	0.58036	0.578465	0.0576514	4	0.0692688	13	314.668	3.33493e-05
2	1	0	1	1	6398.59	0.540351	0.538758	0.0551908	4	0.069644	13	321.337	2.97345e-05
2	1	0	1	1	6405.26	0.500342	0.499297	0.0525926	4	0.0700038	13	328.005	2.62593e-05
2	1	0	1	1	6411.93	0.460334	0.458674	0.0481573	4	0.0703484	13	334.673	2.20885e-05
2	1	0	1	1	6418.6	0.420325	0.418468	0.0483376	4	0.0706778	13	341.341	2.02277e-05
2	1	0	1	1	6425.26	0.380317	0.378811	0.0457669	4	0.0709921	13	348.009	1.7337e-05
2	1	0	1	1	6431.93	0.340308	0.339702	0.0472092	4	0.0712912	13	354.677	1.60371e-05
2	1	0	1	1	6438.6	0.300299	0.298529	0.0415794	4	0.0715749	13	361.345	1.24126e-05
2	1	0	1	1	6445.27	0.26029	0.258922	0.0395126	4	0.0718431	13	368.013	1.02307e-05
2	1	0	1	1	6451.94	0.220282	0.218176	0.033602	4	0.0720958	13	374.681	7.33117e-06
2	1	0	1	1	6458.6	0.180273	0.178721	0.0319306	4	0.0723328	13	381.35	5.70667e-06
2	1	0	1	1	6465.27	0.140265	0.139179	0.0314144	4	0.072554	13	388.018	4.37223e-06
2	1	0	1	1	6471.94	0.100256	0.0985612	0.0294796	4	0.0727591	13	394.686	2.90554e-06
2	1	0	1	1	6478.61	0.060248	0.0587828	0.026893	4	0.0729478	13	401.354	1.58085e-06
2	1	0	1	1	6485.28	0.0202389	0.0177792	0.024443	4	0.0731196	13	408.022	4.34576e-07
2	1	0	1	1	6491.94	-0.0197693	-0.0206742	0.0265722	4	0.0732736	13	414.69	-5.49359e-07
2	1	0	1	1	6498.61	-0.0597783	-0.0608408	0.0248258	4	0.0734084	13	421.358	-1.51042e-06
2	1	0	1	1	6505.28	-0.099787	-0.101448	0.0203102	4	0.0735226	13	428.026	-2.06043e-06
2	1	0	1	1	6511.95	-0.139796	-0.141554	0.0147656	4	0.0736152	13	434.694	-2.09013e-06
2	1	0	1	1	6518.62	-0.179804	-0.181306	0.0115821	4	0.0736876	13	441.362	-2.0999e-06
2	0	0	1	1	6525.29	-0.219813	-0.220566	0.00659433	4	0.0737432	13	448.031	-1.45449e-06
2	0	0	1	1	6531.95	-0.259822	-0.261665	-0.00150243	4	0.073783	13	454.699	3.93134e-07
2	1	0	1	1	6538.62	-0.29983	-0.301844	-0.00495954	4	0.0738052	13	461.367	1.49701e-06
2	1	0	1	1	6545.29	-0.339839	-0.341319	-0.00596654	4	0.0738092	13	1.6671	2.03649e-06
2	1	0	1	1	6551.96	-0.379847	-0.381468	-0.00578316	4	0.073795	13	8.3351	2.20609e-06
2	0	0	1	1	6558.63	-0.419857	-0.421416	-0.00680614	4	0.0737625	13	15.0033	2.86822e-06
2	1	0	1	1	6565.29	-0.459864	-0.460936	-0.00381263	4	0.0737111	13	21.6713	1.75738e-06
2	0	0	1	1	6571.96	-0.499874	-0.501568	-0.0118855	4	0.0736398	13	28.3395	5.96139e-06
2	0	0	1	1	6578.63	-0.539882	-0.540317	-0.0157995	4	0.0735478	13	35.0075	8.53674e-06
2	0	0	1	1	6585.3	-0.579891	-0.581838	-0.022185	4	0.073434	13	41.6757	1.29081e-05
2	0	0	1	1	6591.97	-0.6199	-0.621213	-0.0218753	4	0.0732976	13	48.3438	1.35892e-05
2	0	0	1	1	6598.63	-0.659908	-0.661265	-0.0225515	4	0.0731378	13	55.0119	1.49125e-05
2	0	0	1	1	6605.3	-0.699917	-0.701657	-0.0283407	4	0.072954	13	61.68	1.98854e-05
2	0	0	1	1	6611.97	-0.739925	-0.741218	-0.0328305	4	0.0727454	13	68.3481	2.43346e-05
2	0	0	1	1	6618.64	-0.779934	-0.781429	-0.0399837	4	0.0725113	13	75.0162	3.12444e-05
2	0	0	1	1	6625.31	-0.819943	-0.821559	-0.041355	4	0.0722508	13	81.6843	3.39756e-05
2	0	0	1	1	6631.98	-0.859952	-0.861133	-0.0398385	4	0.0719624	13	88.3525	3.43062e-05
2	0	0	1	1	6638.64	-0.89996	-0.901731	-0.0497054	4	0.0716439	13	95.0205	4.48209e-05
2	0	0	1	1	6645.31	-0.939969	-0.941043	-0.0575828	4	0.0712909	13	101.689	5.41879e-05
2	0	0	1	1	6651.98	-0.979977	-0.981699	-0.0623588	4	0.070901	13	108.357	6.12175e-05
2	0	0	1	0	6658.41	-0.981477	-0.982349	-0.056392	4	0.0704956	13	114.792	5.53966e-05
2	0	0	1	0	6665.08	-0.941469	-0.9432	-0.055071	4	0.0701085	13	121.46	5.1943e-05
2	0	0	1	0	6671.75	-0.90146	-0.903517	-0.0526365	4	0.0697623	13	128.128	4.7558e-05
2	0	0	1	0	6678.42	-0.861451	-0.862794	-0.0454441	4	0.0694542	13	134.796	3.92089e-05
2	0	0	1	0	6685.09	-0.821443	-0.82364	-0.0387564	4	0.0691812	13	141.464	3.19213e-05
2	0	0	1	0	6691.76	-0.781434	-0.783165	-0.032368	4	0.068941	13	148.133	2.53495e-05
2	0	0	1	0	6698.42	-0.741426	-0.741962	-0.0302034	4	0.0687321	13	154.801	2.24097e-05
2	0	0	1	0	6705.09	-0.701417	-0.703186	-0.0252472	4	0.0685534	13	161.469	1.77535e-05
2	0	0	1	0	6711.76	-0.661408	-0.66329	-0.0205015	4	0.0684044	13	168.137	1.35985e-05
2	0	0	1	0	6718.43	-0.621399	-0.622378	-0.0112571	4	0.0682843	13	174.805	7.00618e-06
2	0	0	1	0	6725.1	-0.581391	-0.58318	-0.0115961	4	0.0681926	13	181.473	6.76261e-06
2	0	0	1	0	6731.76	-0.541382	-0.542875	-0.00715182	4	0.0681288	13	188.141	3.88254e-06
2	0	0	1	0	6738.43	-0.501374	-0.503382	-0.00696967	4	0.0680927	13	194.809	3.50841e-06
2	0	0	1	0	6745.1	-0.461365	-0.463237	-0.00447933	4	0.0680842	13	1.0002	2.07499e-06
2	1	0	1	0	6751.77	-0.421357	-0.423245	-0.000866301	4	0.0681032	13	7.6682	3.66657e-07
2	1	0	1	0	6758.19	-0.382848	-0.384817	0.00313631	5	0.068147	13	14.0864	-1.20691e-06
2	1	0	1	0	6764.85	-0.34284	-0.344311	0.0132658	5	0.0682177	13	20.7544	-4.56757e-06
2	1	0	1	0	6771.52	-0.30283	-0.304371	0.0171603	5	0.068313	13	27.4226	-5.22312e-06
2	1	0	1	0	6778.19	-0.262822	-0.264348	0.0210688	5	0.0684325	13	34.0906	-5.56948e-06
2	1	0	1	0	6784.86	-0.222813	-0.22446	0.0248008	5	0.0685762	13	40.7588	-5.5668e-06
2	1	0	1	0	6791.53	-0.182805	-0.184629	0.0285211	5	0.068744	13	47.4268	-5.26582e-06
2	1	0	1	0	6798.19	-0.142796	-0.144533	0.0320787	5	0.0689361	13	54.095	-4.63643e-06
2	1	0	1	0	6804.86	-0.102788	-0.104139	0.0352029	5	0.0691526	13	60.763	-3.66601e-06
2	1	0	1	0	6811.53	-0.062779	-0.064846	0.0314113	5	0.0693939	13	67.4312	-2.0369e-06
2	1	0	1	0	6818.2	-0.0227707	-0.0241967	0.0373733	5	0.0696592	13	74.0992	-9.0431e-07
2	1	0	1	0	6824.87	0.0172383	0.0159817	0.0420615	5	0.0699463	13	80.7674	6.72216e-07
2	1	0	1	0	6831.54	0.0572469	0.0558667	0.0460404	5	0.0702531	13	87.4355	2.57212e-06
2	1	0	1	0	6838.2	0.0972555	0.0959332	0.0499471	5	0.0705784	13	94.1036	4.79158e-06
2	1	0	1	0	6844.87	0.137264	0.135547	0.0517391	5	0.0709202	13	100.772	7.0131e-06
2	1	0	1	0	6851.54	0.177273	0.176487	0.0583811	5	0.0712766	13	107.44	1.03035e-05
2	1	0	1	0	6858.21	0.217282	0.216049	0.0581538	5	0.0716453	13	114.108	1.25641e-05
2	1	0	1	0	6864.88	0.25729	0.255688	0.0577012	5	0.0720244	13	120.776	1.47535e-05
2	1	0	1	0	6871.54	0.297299	0.295629	0.0586481	5	0.0724123	13	127.444	1.73381e-05
2	1	0	1	0	6878.21	0.337307	0.33637	0.0594432	5	0.0728077	13	134.112	1.99949e-05
2	1	0	1	0	6884.88	0.377316	0.375847	0.0576528	5	0.0732095	13	140.78	2.16686e-05
2	1	0	1	0	6891.55	0.417324	0.416028	0.0614708	5	0.0736162	13	147.448	2.55736e-05
2	1	0	1	0	6898.22	0.457333	0.456336	0.064801	5	0.0740272	13	154.117	2.9571e-05
2	1	0	1	0	6904.88	0.497341	0.496201	0.0626652	5	0.074443	13	160.785	3.10945e-05
2	1	0	1	0	6911.55	0.53735	0.535985	0.0635951	5	0.0748645	13	167.453	3.4086e-05
2	1	0	1	0	6918.22	0.577359	0.575642	0.0635791	5	0.0752922	13	174.121	3.65988e-05
2	1	0	1	0	6924.89	0.617368	0.616131	0.0658535	5	0.075727	13	180.789	4.05744e-05
2	1	0	1	0	6931.56	0.657376	0.655028	0.0679493	5	0.0761698	13	187.457	4.45087e-05
2	1	0	1	0	6938.23	0.697385	0.696338	0.0703836	5	0.076621	13	194.125	4.90107e-05
2	1	0	1	0	6944.89	0.737394	0.735565	0.0696104	5	0.077081	13	200.793	5.1203e-05
2	1	0	1	0	6951.56	0.777402	0.775851	0.070843	5	0.0775503	13	207.461	5.49636e-05
2	1	0	1	0	6958.23	0.817411	0.816115	0.0728391	5	0.0780292	13	214.13	5.94451e-05
2	1	0	1	0	6964.9	0.857419	0.856162	0.0741039	5	0.0785182	13	220.798	6.34449e-05
2	1	0	1	0	6971.57	0.897428	0.896889	0.0744533	5	0.0790176	13	227.466	6.67764e-05
2	1	0	1	0	6978.23	0.937436	0.935249	0.0742078	5	0.0795274	13	234.134	6.94028e-05
2	1	0	1	0	6984.9	0.977446	0.975307	0.0756361	5	0.0800475	13	240.802	7.37685e-05
2	1	0	1	0	6991.42	0.983446	0.982315	0.077835	5	0.0805626	13	247.32	7.64585e-05
2	1	0	1	0	6998.09	0.943438	0.942222	0.0752935	5	0.0810735	13	253.989	7.09432e-05
2	1	0	1	0	7004.76	0.903429	0.902272	0.0747959	5	0.0815657	13	260.657	6.74862e-05
2	1	0	1	0	7011.42	0.863421	0.862299	0.0714834	5	0.0820408	13	267.325	6.16401e-05
2	1	0	1	0	7018.09	0.823412	0.821641	0.0677051	5	0.0824995	13	273.993	5.56292e-05
2	1	0	1	0	7024.76	0.783404	0.781641	0.0653597	5	0.0829425	13	280.661	5.10878e-05
2	1	0	1	0	7031.43	0.743395	0.741641	0.063079	5	0.0833702	13	287.329	4.6782e-05
2	1	0	1	0	7038.1	0.703387	0.701687	0.0608383	5	0.0837829	13	293.997	4.26895e-05
2	1	0	1	0	7044.77	0.663377	0.66189	0.0586407	5	0.0841808	13	300.665	3.88137e-05
2	1	0	1	0	7051.43	0.623369	0.621765	0.0562211	5	0.084564	13	307.333	3.49563e-05
2	1	0	1	0	7058.1	0.58336	0.581961	0.0545994	5	0.0849327	13	314.002	3.17748e-05
2	1	0	1	0	7064.77	0.543352	0.54164	0.049798	5	0.085287	13	320.67	2.69726e-05
2	1	0	1	0	7071.44	0.503343	0.501782	0.04965	5	0.0856269	13	327.338	2.49135e-05
2	1	0	1	0	7078.11	0.463335	0.46175	0.0504972	5	0.0859526	13	334.006	2.33171e-05
2	1	0	1	0	7084.77	0.423326	0.421736	0.0455314	5	0.0862641	13	340.674	1.92022e-05
2	1	0	1	0	7091.44	0.383317	0.381918	0.0438811	5	0.0865614	13	347.342	1.6759e-05
2	1	0	1	0	7098.11	0.343309	0.341034	0.0378239	5	0.0868444	13	354.01	1.28992e-05
2	1	0	1	0	7104.78	0.3033	0.301716	0.0361015	5	0.087113	13	360.678	1.08924e-05
2	1	0	1	0	7111.45	0.263291	0.261328	0.0334756	5	0.0873671	13	367.346	8.74812e-06
2	1	0	1	0	7118.11	0.223282	0.221464	0.031213	5	0.0876066	13	374.015	6.91255e-06
2	1	0	1	0	7124.78	0.183274	0.181518	0.0290619	5	0.0878313	13	380.683	5.27526e-06
2	1	0	1	0	7131.45	0.143265	0.141604	0.0276237	5	0.088041	13	387.351	3.91161e-06
2	1	0	1	0	7138.12	0.103257	0.102117	0.0272082	5	0.0882356	13	394.019	2.77843e-06
2	1	0	1	0	7144.79	0.0632478	0.0618166	0.0258428	5	0.0884147	13	400.687	1.59751e-06
2	1	0	1	0	7151.45	0.02324	0.02149	0.0229721	5	0.0885778	13	407.355	4.93669e-07
2	1	0	1	0	7158.12	-0.0167692	-0.0177175	0.0254452	5	0.0887242	13	414.023	-4.50825e-07
2	1	0	1	0	7164.79	-0.0567773	-0.0574927	0.023836	5	0.0888524	13	420.691	-1.3704e-06
2	1	0	1	0	7171.46	-0.0967863	-0.0984498	0.019617	5	0.088961	13	427.359	-1.93129e-06
2	1	0	1	0	7178.13	-0.136795	-0.138499	0.0136903	5	0.0890488	13	434.027	-1.8961e-06
2	1	0	1	0	7184.8	-0.176804	-0.178149	0.0106632	5	0.0891168	13	440.696	-1.89964e-06
2	1	0	1	0	7191.46	-0.216812	-0.218728	-0.000152448	5	0.0891689	13	447.364	3.33446e-08
2	1	0	1	0	7198.13	-0.256821	-0.258215	0.00148257	5	0.0892067	13	454.032	-3.8282e-07
2	1	0	1	0	7204.8	-0.296829	-0.298271	0.000313986	5	0.0892283	13	460.7	-9.36526e-08
2	1	0	1	0	7211.47	-0.336838	-0.339577	-0.000854042	5	0.0892327	13	1.5003	2.90013e-07
2	1	0	1	0	7218.14	-0.376847	-0.378159	0.00357001	5	0.0892201	13	8.1685	-1.35003e-06
2	0	0	1	0	7224.8	-0.416855	-0.418588	-0.00416236	5	0.0891901	13	14.8365	1.74231e-06
2	0	0	1	0	7231.47	-0.456865	-0.458249	-0.00787744	5	0.0891422	13	21.5047	3.60983e-06
2	0	0	1	0	7238.14	-0.496873	-0.498892	-0.0167044	5	0.0890754	13	28.1727	8.33371e-06
2	0	0	1	0	7244.81	-0.536882	-0.538356	-0.0153638	5	0.0889889	13	34.8409	8.27117e-06
2	0	0	1	0	7251.48	-0.57689	-0.578358	-0.0177365	5	0.0888815	13	41.5089	1.0258e-05
2	0	0	1	0	7258.14	-0.616899	-0.619476	-0.0204067	5	0.0887523	13	48.1771	1.26415e-05
2	0	0	1	0	7264.81	-0.656907	-0.657946	-0.019455	5	0.0886005	13	54.8451	1.28004e-05
2	0	0	1	0	7271.48	-0.696916	-0.697853	-0.0232532	5	0.0884253	13	61.5133	1.62273e-05
2	0	0	1	0	7278.15	-0.736925	-0.738693	-0.0291681	5	0.0882259	13	68.1814	2.15462e-05
2	0	0	1	0	7284.82	-0.776933	-0.778457	-0.0349442	5	0.0880014	13	74.8495	2.72026e-05
2	0	0	1	0	7291.49	-0.816942	-0.818728	-0.0396327	5	0.0877509	13	81.5176	3.24484e-05
2	0	0	1	0	7298.15	-0.856951	-0.858425	-0.0433219	5	0.0874726	13	88.1857	3.71886e-05
2	0	0	1	0	7304.82	-0.89696	-0.898349	-0.0484284	5	0.087164	13	94.8539	4.35056e-05
2	0	0	1	0	7311.49	-0.936968	-0.93921	-0.0588454	5	0.0868211	13	101.522	5.52682e-05
2	0	0	1	0	7318.16	-0.976977	-0.97913	-0.0654317	5	0.0864412	13	108.19	6.40662e-05
2	0	0	1	1	7324.59	-0.984479	-0.986299	-0.0620955	5	0.0860424	13	114.625	6.12447e-05
2	0	0	1	1	7331.26	-0.94447	-0.946109	-0.0550245	5	0.0856583	13	121.293	5.20592e-05
2	0	0	1	1	7337.93	-0.904461	-0.905496	-0.0448943	5	0.085315	13	127.961	4.06517e-05
2	0	0	1	1	7344.6	-0.864452	-0.865825	-0.0391339	5	0.0850095	13	134.63	3.38831e-05
2	0	0	1	1	7351.27	-0.824444	-0.8261	-0.0371186	5	0.0847387	13	141.298	3.06637e-05
2	0	0	1	1	7357.93	-0.784435	-0.786122	-0.0333827	5	0.0845002	13	147.966	2.62428e-05
2	0	0	1	1	7364.6	-0.744426	-0.746123	-0.0279173	5	0.0842925	13	154.634	2.08298e-05
2	0	0	1	1	7371.27	-0.704418	-0.706164	-0.0231897	5	0.0841145	13	161.302	1.63758e-05
2	0	0	1	1	7377.94	-0.664409	-0.666096	-0.0194469	5	0.0839655	13	167.97	1.29535e-05
2	0	0	1	1	7384.61	-0.624401	-0.626057	-0.0157361	5	0.0838451	13	174.638	9.85169e-06
2	0	0	1	1	7391.27	-0.584391	-0.586171	-0.0119952	5	0.0837526	13	181.306	7.03126e-06
2	0	0	1	1	7397.94	-0.544384	-0.545175	-0.00940631	5	0.0836876	13	187.974	5.12808e-06
2	1	0	1	1	7404.61	-0.504374	-0.506263	-0.00711837	5	0.0836498	13	194.643	3.60377e-06
2	0	0	1	1	7411.28	-0.464366	-0.465664	0.000407748	5	0.0836394	13	0.6668	-1.89873e-07
2	1	0	1	1	7417.95	-0.424357	-0.425404	0.00820155	5	0.0836563	13	7.335	-3.48897e-06
2	0	0	1	1	7424.36	-0.385849	-0.387573	0.0116824	6	0.0836977	13	13.753	-4.52779e-06
2	1	0	1	1	7431.03	-0.34584	-0.347337	0.0127201	6	0.0837656	13	20.4212	-4.41816e-06
2	1	0	1	1	7437.7	-0.305832	-0.307858	0.00849569	6	0.0838576	13	27.0892	-2.61547e-06
2	1	0	1	1	7444.37	-0.265822	-0.267072	0.0174485	6	0.0839735	13	33.7574	-4.66e-06
2	1	0	1	1	7451.04	-0.225815	-0.227359	0.0248562	6	0.0841129	13	40.4254	-5.65128e-06
2	1	0	1	1	7457.71	-0.185805	-0.187414	0.0316116	6	0.0842759	13	47.0936	-5.92444e-06
2	1	0	1	1	7464.37	-0.145797	-0.147655	0.0310636	6	0.0844622	13	53.7616	-4.58671e-06
2	1	0	1	1	7471.04	-0.105788	-0.106887	0.031628	6	0.0846721	13	60.4298	-3.38062e-06
2	1	0	1	1	7477.71	-0.06578	-0.0678048	0.0308784	6	0.0849058	13	67.0978	-2.0937e-06
2	1	0	1	1	7484.38	-0.025771	-0.0271905	0.0368196	6	0.0851624	13	73.766	-1.00114e-06
2	1	0	1	1	7491.05	0.0142378	0.0128263	0.0408165	6	0.0854395	13	80.4341	5.23526e-07
2	1	0	1	1	7497.71	0.0542463	0.0528077	0.0441223	6	0.0857349	13	87.1022	2.33e-06
2	1	0	1	1	7504.38	0.0942548	0.0927995	0.0473515	6	0.0860466	13	93.7703	4.3942e-06
2	1	0	1	1	7511.05	0.134264	0.132808	0.0498375	6	0.0863726	13	100.438	6.61881e-06
2	1	0	1	1	7517.72	0.174273	0.172596	0.0508252	6	0.0867104	13	107.107	8.77222e-06
2	1	0	1	1	7524.39	0.214281	0.21205	0.05252	6	0.0870569	13	113.775	1.11368e-05
2	1	0	1	1	7531.05	0.25429	0.253025	0.0565733	6	0.0874091	13	120.443	1.43144e-05
2	1	0	1	1	7537.72	0.294298	0.292628	0.0532904	6	0.0877636	13	127.111	1.55943e-05
2	1	0	1	1	7544.39	0.334307	0.332641	0.052618	6	0.0881166	13	133.779	1.75029e-05
2	1	0	1	1	7551.06	0.374315	0.372927	0.0520467	6	0.0884647	13	140.447	1.94096e-05
2	1	0	1	1	7557.73	0.414324	0.412968	0.0512457	6	0.0888077	13	147.115	2.11628e-05
2	1	0	1	1	7564.39	0.454332	0.452968	0.0510634	6	0.0891488	13	153.783	2.31301e-05
2	1	0	1	1	7571.06	0.494341	0.493066	0.0517923	6	0.0894906	13	160.451	2.55371e-05
2	1	0	1	1	7577.73	0.534349	0.533007	0.0524041	6	0.0898353	13	167.119	2.79317e-05
2	1	0	1	1	7584.4	0.574358	0.57297	0.0531572	6	0.0901849	13	173.788	3.04575e-05
2	1	0	1	1	7591.07	0.614367	0.613762	0.0532846	6	0.0905407	13	180.456	3.27041e-05
2	1	0	1	1	7597.74	0.654376	0.652855	0.0527972	6	0.090904	13	187.124	3.44689e-05
2	1	0	1	1	7604.4	0.694384	0.692958	0.0566039	6	0.0912759	13	193.792	3.92241e-05
2	1	0	1	1	7611.07	0.734393	0.733145	0.0608477	6	0.091657	13	200.46	4.46102e-05
2	1	0	1	1	7617.74	0.774402	0.772823	0.0591301	6	0.092048	13	207.128	4.56971e-05
2	1	0	1	1	7624.41	0.81441	0.813424	0.0590984	6	0.0924491	13	213.796	4.80721e-05
2	1	0	1	1	7631.08	0.854419	0.85287	0.0616183	6	0.0928609	13	220.464	5.25524e-05
2	1	0	1	1	7637.74	0.894427	0.893149	0.0643139	6	0.0932834	13	227.132	5.74419e-05
2	1	0	1	1	7644.41	0.934436	0.932885	0.0653442	6	0.0937169	13	233.801	6.09587e-05
2	1	0	1	1	7651.08	0.974444	0.97301	0.0693534	6	0.0941613	13	240.469	6.74816e-05
2	1	0	1	1	7657.6	0.986447	0.98496	0.0696304	6	0.0946039	13	246.987	6.85832e-05
2	1	0	1	1	7664.27	0.946439	0.945278	0.0670082	6	0.0950453	13	253.655	6.33414e-05
2	1	0	1	1	7670.93	0.90643	0.905131	0.0643424	6	0.0954717	13	260.323	5.82383e-05
2	1	0	1	1	7677.6	0.866421	0.864629	0.061235	6	0.0958839	13	266.991	5.29455e-05
2	1	0	1	1	7684.27	0.826413	0.82489	0.0588774	6	0.0962827	13	273.66	4.85674e-05
2	1	0	1	1	7690.94	0.786404	0.784915	0.0567956	6	0.0966683	13	280.328	4.45797e-05
2	1	0	1	1	7697.61	0.746396	0.744882	0.0547861	6	0.0970409	13	286.996	4.08092e-05
2	1	0	1	1	7704.28	0.706387	0.705056	0.0534844	6	0.097401	13	293.664	3.77095e-05
2	1	0	1	1	7710.94	0.666378	0.665333	0.0509202	6	0.0977485	13	300.332	3.38789e-05
2	1	0	1	1	7717.61	0.626369	0.624751	0.0466079	6	0.0980835	13	307	2.91184e-05
2	1	0	1	1	7724.28	0.586361	0.58482	0.0467148	6	0.0984063	13	313.668	2.73198e-05
2	1	0	1	1	7730.95	0.546352	0.545086	0.0457115	6	0.098717	13	320.336	2.49167e-05
2	1	0	1	1	7737.62	0.506344	0.504615	0.0439627	6	0.0990154	13	327.004	2.21843e-05
2	1	0	1	1	7744.28	0.466335	0.464903	0.0422234	6	0.0993015	13	333.673	1.96298e-05
2	1	0	1	1	7750.95	0.426327	0.424652	0.0397765	6	0.0995753	13	340.341	1.68912e-05
2	1	0	1	1	7757.62	0.386318	0.384118	0.0392494	6	0.0998368	13	347.009	1.50764e-05
2	1	0	1	1	7764.29	0.346309	0.345759	0.0398399	6	0.100086	13	353.677	1.3775e-05
2	1	0	1	1	7770.96	0.306301	0.305032	0.0380484	6	0.100323	13	360.345	1.1606e-05
2	1	0	1	1	7777.62	0.266292	0.26477	0.0357403	6	0.100547	13	367.013	9.46296e-06
2	1	0	1	1	7784.29	0.226283	0.224736	0.0339793	6	0.100758	13	373.681	7.63635e-06
2	1	0	1	1	7790.96	0.186275	0.185053	0.0319698	6	0.100957	13	380.349	5.91612e-06
2	1	0	1	1	7797.63	0.146266	0.144503	0.0273555	6	0.101142	13	387.017	3.95295e-06
2	1	0	1	1	7804.3	0.106257	0.104719	0.0247793	6	0.101315	13	393.686	2.59487e-06
2	1	0	1	1	7810.97	0.066249	0.0648858	0.0234114	6	0.101474	13	400.354	1.51907e-06
2	1	0	1	1	7817.63	0.0262398	0.0249261	0.0184587	6	0.101619	13	407.022	4.60104e-07
2	1	0	1	1	7824.3	-0.013768	-0.0156033	0.0133426	6	0.101749	13	413.69	-2.08188e-07
2	1	0	1	1	7830.97	-0.0537773	-0.0556874	0.0113297	6	0.101863	13	420.358	-6.30921e-07
2	1	0	1	1	7837.64	-0.0937853	-0.0952439	0.00998723	6	0.101959	13	427.026	-9.51222e-07
2	1	0	1	1	7844.31	-0.133794	-0.135393	0.00737756	6	0.102036	13	433.694	-9.98868e-07
2	1	0	1	1	7850.97	-0.173803	-0.17518	0.00600713	6	0.102095	13	440.362	-1.05233e-06
2	1	0	1	1	7857.64	-0.213812	-0.215494	0.00419451	6	0.10214	13	447.03	-9.0389e-07
2	1	0	1	1	7864.31	-0.25382	-0.255105	0.00976378	6	0.102173	13	453.698	-2.49079e-06
2	0	0	1	1	7870.98	-0.293829	-0.2955	0.00532517	6	0.102192	13	460.367	-1.57359e-06
2	0	0	1	1	7877.65	-0.333838	-0.335272	0.0010911	6	0.102196	13	1.5003	-3.65813e-07
2	0	0	1	1	7884.31	-0.373846	-0.375653	-0.00833382	6	0.102184	13	8.1684	3.13063e-06
2	1	0	1	1	7890.98	-0.413855	-0.415822	-0.0101549	6	0.102158	13	14.8365	4.22262e-06
2	0	0	1	1	7897.65	-0.453864	-0.455405	-0.00934869	6	0.102114	13	21.5046	4.25744e-06
2	0	0	1	1	7904.32	-0.493873	-0.495195	-0.0105955	6	0.102054	13	28.1728	5.24685e-06
2	0	0	1	1	7910.99	-0.533881	-0.53525	-0.0131524	6	0.101975	13	34.8408	7.0398e-06
2	0	0	1	1	7917.65	-0.57389	-0.575336	-0.0159942	6	0.101876	13	41.509	9.20206e-06
2	0	0	1	1	7924.32	-0.613898	-0.615164	-0.0191366	6	0.101757	13	48.177	1.17722e-05
2	0	0	1	1	7930.99	-0.653907	-0.655189	-0.0225943	6	0.101617	13	54.8452	1.48035e-05
2	0	0	1	1	7937.66	-0.693915	-0.695394	-0.026229	6	0.101454	13	61.5132	1.82395e-05
2	0	0	1	1	7944.33	-0.733924	-0.735441	-0.0298596	6	0.101267	13	68.1814	2.196e-05
2	0	0	1	1	7951	-0.773932	-0.775476	-0.0337443	6	0.101056	13	74.8494	2.61679e-05
2	0	0	1	1	7957.66	-0.813941	-0.815614	-0.0378819	6	0.100819	13	81.5176	3.0897e-05
2	0	0	1	1	7964.33	-0.85395	-0.855671	-0.0421316	6	0.100555	13	88.1857	3.60508e-05
2	0	0	1	1	7971	-0.893959	-0.895705	-0.0443163	6	0.100261	13	94.8538	3.96943e-05
2	0	0	1	1	7977.67	-0.933967	-0.934952	-0.046899	6	0.0999331	13	101.522	4.38483e-05
2	0	0	1	1	7984.34	-0.973976	-0.975582	-0.0575997	6	0.0995674	13	108.19	5.61932e-05
2	0	0	1	0	7990.77	-0.987479	-0.988873	-0.0623357	6	0.0991801	13	114.625	6.16421e-05
2	0	0	1	0	7997.44	-0.947471	-0.94888	-0.0563739	6	0.0988048	13	121.293	5.34921e-05
2	0	0	1	0	8004.11	-0.907462	-0.909072	-0.0479084	6	0.0984697	13	127.962	4.35521e-05
2	0	0	1	0	8010.78	-0.867453	-0.868791	-0.0367119	6	0.0981715	13	134.63	3.18949e-05
2	0	0	1	0	8017.44	-0.827444	-0.82919	-0.0368122	6	0.0979071	13	141.298	3.05243e-05
2	0	0	1	0	8024.11	-0.787436	-0.788896	-0.032331	6	0.0976741	13	147.966	2.55058e-05
2	0	0	1	0	8030.78	-0.747427	-0.748262	-0.0300155	6	0.0974709	13	154.634	2.24595e-05
2	0	0	1	0	8037.45	-0.707418	-0.709292	-0.0292375	6	0.0972964	13	161.302	2.07379e-05
2	0	0	1	0	8044.12	-0.66741	-0.668893	-0.022639	6	0.09715	13	167.97	1.51431e-05
2	0	0	1	0	8050.78	-0.627401	-0.628773	-0.0156859	6	0.0970312	13	174.638	9.86284e-06
2	0	0	1	0	8057.45	-0.587393	-0.589152	-0.0122131	6	0.0969395	13	181.306	7.19537e-06
2	0	0	1	0	8064.12	-0.547383	-0.548466	-0.00305399	6	0.0968746	13	187.975	1.67501e-06
2	0	0	1	0	8070.79	-0.507376	-0.508965	-0.000765264	6	0.0968362	13	194.643	3.89492e-07
2	0	0	1	0	8077.46	-0.467366	-0.46882	0.000843401	6	0.0968246	13	0.1668	-3.95403e-07
2	1	0	1	0	8084.12	-0.427358	-0.429085	0.00424012	6	0.0968396	13	6.8348	-1.81937e-06
2	1	0	1	0	8086.92	-0.410504	-0.412235	-0.00230298	6	0.0968537	13	9.6302	9.49369e-07