File: resorufin_10x_frittedTiCt_FTOWE_AgAgClref_N2sparge_3_16_CV_C12/resorufin_10x_frittedTiCt_FTOWE_AgAgClref_N2sparge_3_04_CV_C12.txt
EC-Lab ASCII FILE
Nb header lines : 59

Cyclic Voltammetry

Run on channel : 12 (SN 15159)
User :
CE vs. WE compliance from -10 V to 10 V
Electrode connection : standard
Potential control : Ewe
Ewe ctrl range : min = -2.50 V, max = 2.50 V
Safety Limits :
	Do not start on E overload
Acquisition started on : 06/27/2024 22:37:21.030
Technique started on : 06/27/2024 22:38:43.186
Loaded Setting File :  NONE
Saved on :
	File : resorufin_10x_frittedTiCt_FTOWE_AgAgClref_N2sparge_3_04_CV_C12.mpr
	Directory : C:\Users\user\OneDrive - California Institute of Technology\Desktop\Big James\06272024_resorufin_spEC_test\
	Host : 10.8.34.190
Device : VMP3 (SN 1026)
Address : 131.215.231.69
EC-Lab for windows v11.50 (software)
Internet server v11.52 (firmware)
Command interpretor v11.50 (firmware)
Electrode material : Au/Pd
Initial state :
Electrolyte : NaCl (0.2M)
Comments : Fe(CN)63-/Fe(CN)64- 5.10-3 M
Reference electrode : SCE Saturated Calomel Electrode (0.241 V)
Electrode surface area : 0.001 cm²
Characteristic mass : 0.001 g
Equivalent Weight : 0.000 g/eq.
Density : 0.000 g/cm3
Volume (V) : 0.001 cm³
Cycle Definition : Charge/Discharge alternance
Ei (V)              0.000
vs.                 Eoc
dE/dt               1000.000
dE/dt unit          mV/s
E1 (V)              1.000
vs.                 Ref
Step percent        50
N                   10
E range min (V)     -2.500
E range max (V)     2.500
I Range             Auto
I Range min         Unset
I Range max         Unset
I Range init        Unset
Bandwidth           5
E2 (V)              -1.000
vs.                 Ref
nc cycles           5
Reverse Scan        1
Ef (V)              0.000
vs.                 Eoc

mode	ox/red	error	control changes	counter inc.	time/s	control/V	Ewe/V	<I>/mA	cycle number	(Q-Qo)/C	I Range	step time/s	P/W
2	1	0	0	0	82.1564	-0.366795	-0.366054	0.00714182	1	0.0000000E+000	14	0.000000000000000E+000	-2.61429e-06
2	1	0	1	0	82.2255	-0.29768	-0.299326	0.0455493	1	1.92956e-06	13	0.049	-1.36341e-05
2	1	0	1	0	82.2655	-0.257671	-0.259594	0.0692453	1	4.35313e-06	13	0.089	-1.79757e-05
2	1	0	1	0	82.3355	-0.187656	-0.189168	0.10162	1	1.02138e-05	12	0.159	-1.92231e-05
2	1	0	1	0	82.3755	-0.147647	-0.149285	0.111487	1	1.45932e-05	12	0.199	-1.66433e-05
2	1	0	1	0	82.4155	-0.107739	-0.109391	0.131773	1	1.95109e-05	12	0.239	-1.44148e-05
2	1	0	1	0	82.4555	-0.0677301	-0.0692474	0.158408	1	2.50201e-05	12	0.279	-1.09694e-05
2	1	0	1	0	82.4955	-0.0277214	-0.0291767	0.14617	1	3.08809e-05	12	0.319	-4.26476e-06
2	1	0	1	0	82.5355	0.0122872	0.0108186	0.153608	1	3.69497e-05	12	0.359	1.66183e-06
2	1	0	1	0	82.5755	0.0522958	0.0507917	0.147631	1	4.30805e-05	12	0.399	7.49845e-06
2	1	0	1	0	82.6155	0.0923045	0.0907531	0.154972	1	4.91208e-05	12	0.439	1.40642e-05
2	1	0	1	0	82.6555	0.132313	0.130897	0.160306	1	5.51875e-05	12	0.479	2.09835e-05
2	1	0	1	0	82.6955	0.172322	0.170919	0.150476	1	6.12919e-05	12	0.519	2.57192e-05
2	1	0	1	0	82.7355	0.21233	0.210818	0.157907	1	6.75585e-05	12	0.559	3.32895e-05
2	1	0	1	0	82.7755	0.252339	0.250829	0.16317	1	7.40331e-05	12	0.599	4.09277e-05
2	1	0	1	0	82.8155	0.292348	0.290817	0.175676	1	8.07471e-05	12	0.639	5.10896e-05
2	1	0	1	0	82.8555	0.332256	0.330795	0.183878	1	8.77766e-05	12	0.679	6.08259e-05
2	1	0	1	0	82.8955	0.372265	0.370864	0.182167	1	9.50792e-05	12	0.719	6.7559e-05
2	1	0	1	0	82.9355	0.412273	0.410751	0.192253	1	0.000102682	12	0.759	7.89679e-05
2	1	0	1	0	82.9755	0.452282	0.450791	0.200384	1	0.000110591	12	0.799	9.03315e-05
2	1	0	1	0	83.0155	0.492291	0.490712	0.212342	1	0.000118792	12	0.839	0.000104199
2	1	0	1	0	83.0555	0.532299	0.530873	0.219835	1	0.000127307	12	0.879	0.000116704
2	1	0	1	0	83.0955	0.572308	0.570901	0.219194	1	0.000136092	12	0.919	0.000125138
2	1	0	1	0	83.1355	0.612317	0.610785	0.230124	1	0.000145187	12	0.959	0.000140556
2	1	0	1	0	83.1755	0.652325	0.650839	0.236949	1	0.000154579	12	0.999	0.000154216
2	1	0	1	0	83.2155	0.692334	0.690834	0.249259	1	0.000164256	12	1.039	0.000172197
2	1	0	1	0	83.2555	0.732342	0.730929	0.255802	1	0.00017428	12	1.079	0.000186973
2	1	0	1	0	83.2955	0.772351	0.770968	0.256435	1	0.00018456	12	1.119	0.000197703
2	1	0	1	0	83.3355	0.81226	0.810743	0.26702	1	0.000195149	12	1.159	0.000216485
2	1	0	1	0	83.3755	0.852268	0.85083	0.276008	1	0.000206062	12	1.199	0.000234836
2	1	0	1	0	83.4155	0.892277	0.890831	0.288041	1	0.000217293	12	1.239	0.000256596
2	1	0	1	0	83.4555	0.932286	0.930944	0.295214	1	0.000228837	12	1.279	0.000274827
2	1	0	1	0	83.4955	0.972294	0.970949	0.294932	1	0.000240668	12	1.319	0.000286364
2	1	0	1	0	83.5285	0.994699	0.993381	0.287652	1	0.000250637	12	1.352	0.000285748
2	1	0	1	0	83.5685	0.95469	0.953288	0.274201	1	0.000261945	12	1.392	0.000261393
2	1	0	1	0	83.6085	0.914682	0.913293	0.26404	1	0.000272739	12	1.432	0.000241146
2	1	0	1	0	83.6485	0.874673	0.873253	0.258537	1	0.000283114	12	1.472	0.000225768
2	1	0	1	0	83.6885	0.834665	0.833267	0.248636	1	0.000293128	12	1.512	0.00020718
2	1	0	1	0	83.7285	0.794656	0.793281	0.232072	1	0.00030272	12	1.552	0.000184098
2	1	0	1	0	83.7685	0.754747	0.753252	0.224022	1	0.000311926	12	1.592	0.000168745
2	1	0	1	0	83.8085	0.714739	0.713263	0.216503	1	0.000320768	12	1.632	0.000154424
2	1	0	1	0	83.8485	0.67473	0.67326	0.210742	1	0.000329252	12	1.672	0.000141884
2	1	0	1	0	83.8885	0.634721	0.633261	0.200987	1	0.000337361	12	1.712	0.000127277
2	1	0	1	0	83.9285	0.594713	0.593311	0.185594	1	0.000345079	12	1.752	0.000110115
2	1	0	1	0	83.9685	0.554704	0.553231	0.177824	1	0.000352444	12	1.792	9.83779e-05
2	1	0	1	0	84.0085	0.514696	0.513149	0.169463	1	0.00035944	12	1.832	8.69596e-05
2	1	0	1	0	84.0485	0.474687	0.47318	0.164575	1	0.000366059	12	1.872	7.78736e-05
2	1	0	1	0	84.0885	0.434678	0.433245	0.156061	1	0.000372338	12	1.912	6.76126e-05
2	1	0	1	0	84.1285	0.39467	0.393274	0.13985	1	0.000378228	12	1.952	5.49995e-05
2	1	0	1	0	84.1685	0.354661	0.353174	0.132263	1	0.000383764	12	1.992	4.67119e-05
2	1	0	1	0	84.2085	0.314752	0.313258	0.123353	1	0.000388944	12	2.032	3.86414e-05
2	1	0	1	0	84.2485	0.274744	0.273199	0.119622	1	0.000393749	12	2.072	3.26806e-05
2	1	0	1	0	84.2885	0.234735	0.23329	0.110749	1	0.000398199	12	2.112	2.58366e-05
2	1	0	1	0	84.3285	0.194727	0.193371	0.0925041	1	0.000402231	12	2.152	1.78876e-05
2	1	0	1	0	84.3685	0.154718	0.153231	0.0839525	1	0.000405867	12	2.192	1.28641e-05
2	1	0	1	0	84.4085	0.114709	0.113241	0.0713959	1	0.000409062	12	2.232	8.08495e-06
2	1	0	1	0	84.4485	0.0747007	0.0731725	0.0650709	1	0.000411746	12	2.272	4.7614e-06
2	1	0	1	0	84.4885	0.034692	0.0333268	0.0540626	1	0.000413894	12	2.312	1.80173e-06
2	1	0	1	0	84.5285	-0.00531657	-0.0067312	0.0200497	1	0.000415302	12	2.352	-1.34958e-07
2	1	0	1	0	84.5685	-0.0453252	-0.0468772	0.00121582	1	0.000415846	12	0.002	-5.69941e-08
2	0	0	1	0	84.6085	-0.0853339	-0.0869257	-0.0297664	1	0.000415405	12	0.034	2.58746e-06
2	0	0	1	0	84.6485	-0.125343	-0.126989	-0.0486253	1	0.000413851	12	0.074	6.17488e-06
2	0	0	1	0	84.6885	-0.165251	-0.166704	-0.057301	1	0.000411409	12	0.114	9.55232e-06
2	0	0	1	0	84.7285	-0.20526	-0.206639	-0.0932705	1	0.000408187	12	0.154	1.92733e-05
2	0	0	1	0	84.7685	-0.245268	-0.246818	-0.0950296	1	0.000404496	12	0.194	2.3455e-05
2	0	0	1	0	84.8085	-0.285277	-0.286854	-0.101619	1	0.000400662	12	0.234	2.91497e-05
2	0	0	1	0	84.8485	-0.325286	-0.326906	-0.0899454	1	0.000396834	12	0.274	2.94037e-05
2	0	0	1	0	84.8885	-0.365294	-0.366747	-0.074691	1	0.000393273	12	0.314	2.73927e-05
2	0	0	1	0	84.9285	-0.405303	-0.40674	-0.0921546	1	0.000389804	12	0.354	3.7483e-05
2	0	0	1	0	84.9685	-0.445312	-0.446815	-0.0876683	1	0.000386338	12	0.394	3.91715e-05
2	0	0	1	0	85.0085	-0.48532	-0.486904	-0.0931353	1	0.000382818	12	0.434	4.53479e-05
2	0	0	1	0	85.0485	-0.525329	-0.526895	-0.0849932	1	0.000379225	12	0.474	4.47825e-05
2	0	0	1	0	85.0885	-0.565338	-0.566777	-0.0860316	1	0.000375595	12	0.514	4.87607e-05
2	0	0	1	0	85.1285	-0.605246	-0.606674	-0.105271	1	0.00037173	12	0.554	6.38652e-05
2	0	0	1	0	85.1685	-0.645255	-0.646796	-0.107455	1	0.000367626	12	0.594	6.95015e-05
2	0	0	1	0	85.2085	-0.685263	-0.686806	-0.1165	1	0.000363248	12	0.634	8.0013e-05
2	0	0	1	0	85.2485	-0.725272	-0.726815	-0.115445	1	0.00035855	12	0.674	8.39072e-05
2	0	0	1	0	85.2885	-0.765281	-0.766663	-0.122007	1	0.000353574	12	0.714	9.35381e-05
2	0	0	1	0	85.3285	-0.805289	-0.806657	-0.145118	1	0.000348205	12	0.754	0.000117061
2	0	0	1	0	85.3685	-0.845298	-0.846849	-0.14805	1	0.000342501	12	0.794	0.000125376
2	0	0	1	0	85.4085	-0.885307	-0.886891	-0.159966	1	0.00033645	12	0.834	0.000141872
2	0	0	1	0	85.4485	-0.925315	-0.926898	-0.160472	1	0.000329995	12	0.874	0.000148741
2	0	0	1	0	85.4885	-0.965324	-0.966738	-0.169529	1	0.000323172	12	0.914	0.00016389
2	0	0	0	1	85.5238	-1.00003	-1.00188	-0.197127	1	0.000316755	12	0.9493	0.000197497
2	0	0	1	1	85.5629	-0.960723	-0.962359	-0.134604	1	0.000311436	12	0.9884	0.000129537
2	0	0	1	1	85.6029	-0.920714	-0.922324	-0.107528	1	0.000306817	12	1.0284	9.91759e-05
2	0	0	1	1	85.6429	-0.880706	-0.88233	-0.0978162	1	0.0003027	12	1.0684	8.63062e-05
2	0	0	1	1	85.6829	-0.840697	-0.842272	-0.0818991	1	0.00029899	12	1.1084	6.89813e-05
2	0	0	1	1	85.7229	-0.800688	-0.802215	-0.0824351	1	0.00029571	12	1.1484	6.61307e-05
2	0	0	1	1	85.7629	-0.76068	-0.762236	-0.0793163	1	0.000292752	12	1.1884	6.04577e-05
2	0	0	1	1	85.8029	-0.720671	-0.722311	-0.0585058	1	0.000290186	12	1.2284	4.22594e-05
2	0	0	1	1	85.8429	-0.680663	-0.682309	-0.0509534	1	0.000287976	12	1.2684	3.47659e-05
2	0	0	1	1	85.8829	-0.640654	-0.642157	-0.0365814	1	0.000286108	12	1.3084	2.3491e-05
2	0	0	1	1	85.9229	-0.600645	-0.602199	-0.0383915	1	0.000284636	12	1.3484	2.31193e-05
2	0	0	1	1	85.9629	-0.560737	-0.562327	-0.0327097	1	0.000283495	12	1.3884	1.83935e-05
2	0	0	1	1	86.0029	-0.520728	-0.522418	-0.0114349	1	0.000282776	12	1.4284	5.97381e-06
2	0	0	1	1	86.0429	-0.480719	-0.482299	-0.00215349	1	0.000282473	12	0.002	1.03862e-06
2	1	0	1	1	86.0829	-0.440711	-0.442286	0.015632	1	0.000282618	12	0.018	-6.91384e-06
2	1	0	1	1	86.1229	-0.400702	-0.402238	0.0190424	1	0.000283317	12	0.058	-7.65957e-06
2	1	0	1	1	86.1599	-0.363694	-0.365261	0.0379696	2	0.000284441	12	0.095	-1.38688e-05
2	1	0	1	1	86.1999	-0.323685	-0.325217	0.0588259	2	0.00028624	12	0.135	-1.91312e-05
2	1	0	1	1	86.2399	-0.283677	-0.285167	0.0650599	2	0.000288721	12	0.175	-1.85529e-05
2	1	0	1	1	86.2799	-0.243668	-0.245299	0.0722974	2	0.000291798	12	0.215	-1.77345e-05
2	1	0	1	1	86.3199	-0.203659	-0.205398	0.109639	2	0.000295591	12	0.255	-2.25196e-05
2	1	0	1	1	86.3599	-0.163651	-0.165249	0.118262	2	0.000300038	12	0.295	-1.95428e-05
2	1	0	1	1	86.3999	-0.123742	-0.125335	0.137831	2	0.000305042	12	0.335	-1.7275e-05
2	1	0	1	1	86.4399	-0.0837335	-0.0852396	0.141389	2	0.000310638	12	0.375	-1.20519e-05
2	1	0	1	1	86.4799	-0.0437249	-0.0453875	0.139588	2	0.000316577	12	0.415	-6.33555e-06
2	1	0	1	1	86.5199	-0.00371623	-0.00542716	0.164947	2	0.000322808	12	0.455	-8.95193e-07
2	1	0	1	1	86.5599	0.0362924	0.0347539	0.15599	2	0.000329077	12	0.495	5.42127e-06
2	1	0	1	1	86.5999	0.076301	0.0748065	0.156938	2	0.000335223	12	0.535	1.174e-05
2	1	0	1	1	86.6399	0.11631	0.114837	0.145408	2	0.000341315	12	0.575	1.66983e-05
2	1	0	1	1	86.6799	0.156318	0.15472	0.146039	2	0.000347364	12	0.615	2.25952e-05
2	1	0	1	1	86.7199	0.196327	0.194677	0.163904	2	0.000353556	12	0.655	3.19083e-05
2	1	0	1	1	86.7599	0.236336	0.234808	0.162466	2	0.00035989	12	0.695	3.81483e-05
2	1	0	1	1	86.7999	0.276344	0.274847	0.16921	2	0.000366444	12	0.735	4.65069e-05
2	1	0	1	1	86.8399	0.316353	0.314855	0.169413	2	0.000373288	12	0.775	5.33404e-05
2	1	0	1	1	86.8799	0.356261	0.354677	0.178147	2	0.000380386	12	0.815	6.31848e-05
2	1	0	1	1	86.9199	0.39627	0.394675	0.195358	2	0.0003878	12	0.855	7.71027e-05
2	1	0	1	1	86.9599	0.436279	0.434803	0.197708	2	0.000395481	12	0.895	8.5964e-05
2	1	0	1	1	86.9999	0.476287	0.474772	0.20467	2	0.000403476	12	0.935	9.71717e-05
2	1	0	1	1	87.0399	0.516296	0.514807	0.205309	2	0.00041177	12	0.975	0.000105694
2	1	0	1	1	87.0799	0.556304	0.554714	0.215683	2	0.000420318	12	1.015	0.000119642
2	1	0	1	1	87.1199	0.596313	0.594731	0.233297	2	0.000429204	12	1.055	0.000138749
2	1	0	1	1	87.1599	0.636322	0.634839	0.233882	2	0.000438358	12	1.095	0.000148478
2	1	0	1	1	87.1999	0.67633	0.674853	0.240851	2	0.000447816	12	1.135	0.000162539
2	1	0	1	1	87.2399	0.716339	0.714831	0.243216	2	0.00045757	12	1.175	0.000173858
2	1	0	1	1	87.2799	0.756348	0.754753	0.253742	2	0.000467617	12	1.215	0.000191512
2	1	0	1	1	87.3199	0.796256	0.794689	0.270168	2	0.000477985	12	1.255	0.0002147
2	1	0	1	1	87.3599	0.836265	0.834868	0.271329	2	0.000488638	12	1.295	0.000226524
2	1	0	1	1	87.3999	0.876273	0.874809	0.279495	2	0.000499603	12	1.335	0.000244505
2	1	0	1	1	87.4399	0.916282	0.91488	0.282167	2	0.000510903	12	1.375	0.000258148
2	1	0	1	1	87.4799	0.956291	0.954747	0.293676	2	0.000522479	12	1.415	0.000280386
2	1	0	1	1	87.5199	0.996299	0.994814	0.309465	2	0.000534403	12	1.455	0.00030786
2	1	0	1	1	87.5529	0.970694	0.969167	0.280489	2	0.00054383	12	1.488	0.000271841
2	1	0	1	1	87.5929	0.930685	0.929282	0.267767	2	0.000554691	12	1.528	0.000248831
2	1	0	1	1	87.6329	0.890677	0.889258	0.257232	2	0.000565107	12	1.568	0.000228746
2	1	0	1	1	87.6729	0.850668	0.849224	0.241584	2	0.000575148	12	1.608	0.000205159
2	1	0	1	1	87.7129	0.810659	0.809153	0.232618	2	0.00058477	12	1.648	0.000188223
2	1	0	1	1	87.7529	0.770751	0.769111	0.232089	2	0.000594015	12	1.688	0.000178503
2	1	0	1	1	87.7929	0.730742	0.729279	0.219275	2	0.000602898	12	1.728	0.000159913
2	1	0	1	1	87.8329	0.690733	0.689298	0.209728	2	0.000611415	12	1.768	0.000144565
2	1	0	1	1	87.8729	0.650725	0.649221	0.193922	2	0.000619558	12	1.808	0.000125898
2	1	0	1	1	87.9129	0.610716	0.609155	0.186114	2	0.000627309	12	1.848	0.000113373
2	1	0	1	1	87.9529	0.570708	0.569081	0.186969	2	0.000634735	12	1.888	0.000106401
2	1	0	1	1	87.9929	0.530699	0.529221	0.172997	2	0.000641768	12	1.928	9.15534e-05
2	1	0	1	1	88.0329	0.49069	0.489204	0.163271	2	0.000648437	12	1.968	7.98729e-05
2	1	0	1	1	88.0729	0.450682	0.449193	0.148647	2	0.000654754	12	2.008	6.67711e-05
2	1	0	1	1	88.1129	0.410673	0.409146	0.141167	2	0.000660694	12	2.048	5.7758e-05
2	1	0	1	1	88.1529	0.370664	0.369075	0.140722	2	0.000666291	12	2.088	5.19369e-05
2	1	0	1	1	88.1929	0.330656	0.329194	0.127731	2	0.000671514	12	2.128	4.20482e-05
2	1	0	1	1	88.2329	0.290747	0.28924	0.118755	2	0.000676389	12	2.168	3.43489e-05
2	1	0	1	1	88.2729	0.250739	0.24928	0.102503	2	0.000680904	12	2.208	2.55518e-05
2	1	0	1	1	88.3129	0.21073	0.209195	0.094271	2	0.000684999	12	2.248	1.9721e-05
2	1	0	1	1	88.3529	0.170721	0.169089	0.0955549	2	0.000688739	12	2.288	1.61572e-05
2	1	0	1	1	88.3929	0.130713	0.129217	0.0784374	2	0.000692043	12	2.328	1.01355e-05
2	1	0	1	1	88.4329	0.0907041	0.0892708	0.0670108	2	0.000694876	12	2.368	5.98211e-06
2	1	0	1	1	88.4729	0.0506955	0.0492139	0.0438209	2	0.000697187	12	2.408	2.1566e-06
2	1	0	1	1	88.5129	0.0106869	0.00912307	0.0232152	2	0.000698811	12	2.448	2.11794e-07
2	1	0	1	1	88.5529	-0.0293218	-0.031041	0.0179696	2	0.000699667	12	2.488	-5.57796e-07
2	0	0	1	1	88.5929	-0.0693304	-0.070891	-0.0172423	2	0.000699514	12	0.018	1.22232e-06
2	0	0	1	1	88.6329	-0.109339	-0.110896	-0.0410556	2	0.000698223	12	0.058	4.5529e-06
2	0	0	1	1	88.6729	-0.149248	-0.150746	-0.0737435	2	0.000695923	12	0.098	1.11165e-05
2	0	0	1	1	88.7129	-0.189256	-0.190892	-0.102215	2	0.000692685	12	0.138	1.95121e-05
2	0	0	1	1	88.7529	-0.229265	-0.230944	-0.0906088	2	0.000688907	12	0.178	2.09255e-05
2	0	0	1	1	88.7929	-0.269274	-0.270814	-0.103389	2	0.000684835	12	0.218	2.79992e-05
2	0	0	1	1	88.8329	-0.309282	-0.310828	-0.0965372	2	0.000680697	12	0.258	3.00065e-05
2	0	0	1	1	88.8729	-0.349291	-0.350779	-0.100906	2	0.000676789	12	0.298	3.53956e-05
2	0	0	1	1	88.9129	-0.3893	-0.39096	-0.101878	2	0.000673036	12	0.338	3.98303e-05
2	0	0	1	1	88.9529	-0.429308	-0.431018	-0.0778891	2	0.000669487	12	0.378	3.35716e-05
2	0	0	1	1	88.9929	-0.469317	-0.470861	-0.085699	2	0.000666004	12	0.418	4.03523e-05
2	0	0	1	1	89.0329	-0.509325	-0.510857	-0.0828615	2	0.000662538	12	0.458	4.23304e-05
2	0	0	1	1	89.0729	-0.549334	-0.55085	-0.0979029	2	0.000659011	12	0.498	5.39298e-05
2	0	0	1	1	89.1129	-0.589343	-0.590991	-0.102472	2	0.000655236	12	0.538	6.056e-05
2	0	0	1	1	89.1529	-0.629251	-0.630875	-0.0940014	2	0.000651254	12	0.578	5.93032e-05
2	0	0	1	1	89.1929	-0.66926	-0.670761	-0.109534	2	0.000646963	12	0.618	7.34709e-05
2	0	0	1	1	89.2329	-0.709269	-0.710762	-0.115562	2	0.00064236	12	0.658	8.21374e-05
2	0	0	1	1	89.2729	-0.749277	-0.750799	-0.133923	2	0.00063746	12	0.698	0.000100549
2	0	0	1	1	89.3129	-0.789286	-0.790954	-0.141322	2	0.000632172	12	0.738	0.000111779
2	0	0	1	1	89.3529	-0.829295	-0.830954	-0.135341	2	0.00062658	12	0.778	0.000112462
2	0	0	1	1	89.3929	-0.869303	-0.870859	-0.15256	2	0.000620614	12	0.818	0.000132858
2	0	0	1	1	89.4329	-0.909312	-0.910838	-0.15942	2	0.000614278	12	0.858	0.000145206
2	0	0	1	1	89.4729	-0.949321	-0.950825	-0.180754	2	0.000607568	12	0.898	0.000171866
2	0	0	1	1	89.5129	-0.989329	-0.990996	-0.190364	2	0.000600394	12	0.938	0.00018865
2	0	0	1	0	89.5473	-0.976726	-0.978374	-0.12809	2	0.000595012	12	0.9724	0.00012532
2	0	0	1	0	89.5873	-0.936718	-0.938186	-0.103948	2	0.000590125	12	1.0124	9.75226e-05
2	0	0	1	0	89.6273	-0.896709	-0.898199	-0.10497	2	0.000585762	12	1.0524	9.42841e-05
2	0	0	1	0	89.6673	-0.8567	-0.858241	-0.0923676	2	0.000581849	12	1.0924	7.92736e-05
2	0	0	1	0	89.7073	-0.816692	-0.818293	-0.0871493	2	0.000578356	12	1.1324	7.13137e-05
2	0	0	1	0	89.7473	-0.776683	-0.778276	-0.0692916	2	0.000575207	12	1.1724	5.39279e-05
2	0	0	1	0	89.7873	-0.736675	-0.738164	-0.0548382	2	0.000572464	12	1.2124	4.04796e-05
2	0	0	1	0	89.8273	-0.696666	-0.698116	-0.0580649	2	0.000570045	12	1.2524	4.05361e-05
2	0	0	1	0	89.8673	-0.656657	-0.658152	-0.0474974	2	0.000567989	12	1.2924	3.12605e-05
2	0	0	1	0	89.9073	-0.616649	-0.618226	-0.0424036	2	0.000566299	12	1.3324	2.6215e-05
2	0	0	1	0	89.9473	-0.57674	-0.578281	-0.0236703	2	0.000564955	12	1.3724	1.36881e-05
2	0	0	1	0	89.9873	-0.536731	-0.538241	-0.00938248	2	0.00056403	12	1.4124	5.05003e-06
2	0	0	1	0	90.0273	-0.496723	-0.498204	-0.0108129	2	0.000563475	12	1.4524	5.38704e-06
2	1	0	1	0	90.0673	-0.456714	-0.458219	0.00270499	2	0.000563365	12	0.002	-1.23948e-06
2	1	0	1	0	90.1073	-0.416705	-0.418297	0.0119309	2	0.00056376	12	0.026	-4.99065e-06
2	1	0	1	0	90.1473	-0.376697	-0.378331	0.0345052	2	0.000564678	12	0.066	-1.30544e-05
2	1	0	1	0	90.1843	-0.339689	-0.341255	0.0451923	3	0.000566102	12	0.103	-1.54221e-05
2	1	0	1	0	90.2243	-0.29968	-0.301298	0.0569514	3	0.00056826	12	0.143	-1.71593e-05
2	1	0	1	0	90.2643	-0.259672	-0.261327	0.0825288	3	0.000571035	12	0.183	-2.1567e-05
2	1	0	1	0	90.3043	-0.219663	-0.221098	0.107962	3	0.000574563	12	0.223	-2.38701e-05
2	1	0	1	0	90.3443	-0.179654	-0.180992	0.102982	3	0.000578708	12	0.263	-1.8639e-05
2	1	0	1	0	90.3843	-0.139646	-0.141217	0.127185	3	0.000583485	12	0.303	-1.79607e-05
2	1	0	1	0	90.4243	-0.099737	-0.101316	0.135451	3	0.000588849	12	0.343	-1.37233e-05
2	1	0	1	0	90.4643	-0.0597283	-0.0613956	0.153445	3	0.000594627	12	0.383	-9.42087e-06
2	1	0	1	0	90.5043	-0.0197197	-0.0211859	0.167054	3	0.000600798	12	0.423	-3.5392e-06
2	1	0	1	0	90.5443	0.020289	0.0189049	0.146294	3	0.000607023	12	0.463	2.76567e-06
2	1	0	1	0	90.5843	0.0602976	0.058809	0.152733	3	0.000613197	12	0.503	8.98206e-06
2	1	0	1	0	90.6243	0.100306	0.0987768	0.14731	3	0.000619272	12	0.543	1.45508e-05
2	1	0	1	0	90.6643	0.140315	0.138798	0.155653	3	0.000625268	12	0.583	2.16043e-05
2	1	0	1	0	90.7043	0.180323	0.178906	0.156059	3	0.00063136	12	0.623	2.79201e-05
2	1	0	1	0	90.7443	0.220332	0.218912	0.149353	3	0.000637547	12	0.663	3.26952e-05
2	1	0	1	0	90.7843	0.260341	0.258796	0.162243	3	0.000643967	12	0.703	4.19878e-05
2	1	0	1	0	90.8243	0.300349	0.298836	0.167951	3	0.000650614	12	0.743	5.01898e-05
2	1	0	1	0	90.8643	0.340258	0.338753	0.181202	3	0.000657528	12	0.783	6.13826e-05
2	1	0	1	0	90.9043	0.380267	0.378843	0.184098	3	0.000664769	12	0.823	6.97443e-05
2	1	0	1	0	90.9443	0.420275	0.418829	0.183263	3	0.000672252	12	0.863	7.67559e-05
2	1	0	1	0	90.9843	0.460284	0.458737	0.197257	3	0.000680043	12	0.903	9.04893e-05
2	1	0	1	0	91.0243	0.500292	0.498799	0.204792	3	0.000688141	12	0.943	0.00010215
2	1	0	1	0	91.0643	0.540301	0.538825	0.217575	3	0.000696513	12	0.983	0.000117235
2	1	0	1	0	91.1043	0.58031	0.57893	0.220215	3	0.000705194	12	1.023	0.000127489
2	1	0	1	0	91.1443	0.620318	0.618849	0.219515	3	0.000714131	12	1.063	0.000135847
2	1	0	1	0	91.1843	0.660327	0.658802	0.234598	3	0.000723402	12	1.103	0.000154554
2	1	0	1	0	91.2243	0.700336	0.698865	0.241246	3	0.000732965	12	1.143	0.000168598
2	1	0	1	0	91.2643	0.740344	0.738853	0.254209	3	0.00074279	12	1.183	0.000187823
2	1	0	1	0	91.3043	0.780353	0.778967	0.256517	3	0.000752953	12	1.223	0.000199818
2	1	0	1	0	91.3443	0.820261	0.818859	0.257023	3	0.000763406	12	1.263	0.000210465
2	1	0	1	0	91.3843	0.86027	0.858807	0.271723	3	0.000774166	12	1.303	0.000233357
2	1	0	1	0	91.4243	0.900279	0.898806	0.279645	3	0.000785232	12	1.343	0.000251346
2	1	0	1	0	91.4643	0.940287	0.938833	0.293489	3	0.000796607	12	1.383	0.000275537
2	1	0	1	0	91.5043	0.980296	0.978954	0.29471	3	0.00080833	12	1.423	0.000288507
2	1	0	1	0	91.5373	0.986697	0.985363	0.28104	3	0.000817981	12	1.456	0.000276926
2	1	0	1	0	91.5773	0.946689	0.945405	0.262213	3	0.000828938	12	1.496	0.000247897
2	1	0	1	0	91.6173	0.90668	0.905238	0.256574	3	0.000839467	12	1.536	0.00023226
2	1	0	1	0	91.6573	0.866671	0.865234	0.246689	3	0.000849554	12	1.576	0.000213444
2	1	0	1	0	91.6973	0.826663	0.825189	0.241354	3	0.000859241	12	1.616	0.000199163
2	1	0	1	0	91.7373	0.786754	0.78535	0.229613	3	0.000868591	12	1.656	0.000180327
2	1	0	1	0	91.7773	0.746746	0.745344	0.212875	3	0.000877528	12	1.696	0.000158665
2	1	0	1	0	91.8173	0.706737	0.705183	0.208748	3	0.0008861	12	1.736	0.000147206
2	1	0	1	0	91.8573	0.666728	0.665261	0.199717	3	0.000894327	12	1.776	0.000132864
2	1	0	1	0	91.8973	0.62672	0.625222	0.195884	3	0.000902164	12	1.816	0.000122471
2	1	0	1	0	91.9373	0.586711	0.585307	0.182733	3	0.000909665	12	1.856	0.000106955
2	1	0	1	0	91.9773	0.546702	0.545295	0.166428	3	0.00091676	12	1.896	9.07524e-05
2	1	0	1	0	92.0173	0.506694	0.505166	0.163045	3	0.00092352	12	1.936	8.23647e-05
2	1	0	1	0	92.0573	0.466685	0.465188	0.154006	3	0.000929909	12	1.976	7.16416e-05
2	1	0	1	0	92.0973	0.426677	0.425159	0.150859	3	0.000935932	12	2.016	6.41392e-05
2	1	0	1	0	92.1373	0.386668	0.385291	0.13816	3	0.000941627	12	2.056	5.32318e-05
2	1	0	1	0	92.1773	0.346659	0.345264	0.120561	3	0.000946923	12	2.096	4.16253e-05
2	1	0	1	0	92.2173	0.306751	0.305243	0.118096	3	0.000951881	12	2.136	3.6048e-05
2	1	0	1	0	92.2573	0.266742	0.265287	0.108866	3	0.000956479	12	2.176	2.88806e-05
2	1	0	1	0	92.2973	0.226733	0.22525	0.105969	3	0.000960698	12	2.216	2.38695e-05
2	1	0	1	0	92.3373	0.186725	0.185312	0.0921913	3	0.00096455	12	2.256	1.70842e-05
2	1	0	1	0	92.3773	0.146716	0.145336	0.0712834	3	0.000967957	12	2.296	1.036e-05
2	1	0	1	0	92.4173	0.106708	0.10517	0.0676594	3	0.000970947	12	2.336	7.11571e-06
2	1	0	1	0	92.4573	0.066699	0.0651955	0.0525829	3	0.000973434	12	2.376	3.42817e-06
2	1	0	1	0	92.4973	0.0266903	0.0251397	0.0441337	3	0.000975294	12	2.416	1.10951e-06
2	1	0	1	0	92.5373	-0.0133183	-0.0147782	0.0236953	3	0.000976472	12	2.456	-3.50175e-07
2	0	0	1	0	92.5773	-0.0533269	-0.0547534	-0.0187665	3	0.000976664	12	0.004	1.02753e-06
2	0	0	1	0	92.6173	-0.0933356	-0.0948836	-0.0363571	3	0.000975783	12	0.044	3.44969e-06
2	0	0	1	0	92.6573	-0.133344	-0.134919	-0.0671266	3	0.000973807	12	0.084	9.05667e-06
2	0	0	1	0	92.6973	-0.173253	-0.17481	-0.0803749	3	0.000970808	12	0.124	1.40503e-05
2	0	0	1	0	92.7373	-0.213261	-0.214708	-0.088463	3	0.000967167	12	0.164	1.89937e-05
2	0	0	1	0	92.7773	-0.25327	-0.254706	-0.11751	3	0.000963048	12	0.204	2.99304e-05
2	0	0	1	0	92.8173	-0.293279	-0.294854	-0.105422	3	0.000958808	12	0.244	3.1084e-05
2	0	0	1	0	92.8573	-0.333287	-0.334817	-0.104819	3	0.000954703	12	0.284	3.50952e-05
2	0	0	1	0	92.8973	-0.373296	-0.374868	-0.089172	3	0.00095078	12	0.324	3.34277e-05
2	0	0	1	0	92.9373	-0.413305	-0.414749	-0.0836798	3	0.000947139	12	0.364	3.47061e-05
2	0	0	1	0	92.9773	-0.453313	-0.454781	-0.0996093	3	0.000943557	12	0.404	4.53005e-05
2	0	0	1	0	93.0173	-0.493322	-0.49487	-0.0874698	3	0.000940076	12	0.444	4.32862e-05
2	0	0	1	0	93.0573	-0.533331	-0.534864	-0.0924981	3	0.000936569	12	0.484	4.9474e-05
2	0	0	1	0	93.0973	-0.573339	-0.574841	-0.08821	3	0.000932876	12	0.524	5.07067e-05
2	0	0	1	0	93.1373	-0.613248	-0.614639	-0.100458	3	0.000928986	12	0.564	6.17454e-05
2	0	0	1	0	93.1773	-0.653257	-0.654714	-0.119808	3	0.000924763	12	0.604	7.84398e-05
2	0	0	1	0	93.2173	-0.693265	-0.694798	-0.117089	3	0.000920271	12	0.644	8.13536e-05
2	0	0	1	0	93.2573	-0.733274	-0.734828	-0.127257	3	0.000915461	12	0.684	9.35121e-05
2	0	0	1	0	93.2973	-0.773282	-0.77483	-0.126777	3	0.000910289	12	0.724	9.82305e-05
2	0	0	1	0	93.3373	-0.813291	-0.81468	-0.140174	3	0.000904824	12	0.764	0.000114197
2	0	0	1	0	93.3773	-0.8533	-0.85483	-0.162331	3	0.000898953	12	0.804	0.000138765
2	0	0	1	0	93.4173	-0.893308	-0.89487	-0.160687	3	0.000892745	12	0.844	0.000143794
2	0	0	1	0	93.4573	-0.933317	-0.934879	-0.172681	3	0.00088616	12	0.884	0.000161436
2	0	0	1	0	93.4973	-0.973326	-0.974851	-0.173179	3	0.000879155	12	0.924	0.000168824
2	0	0	1	1	93.5317	-0.99273	-0.994347	-0.140241	3	0.00087306	12	0.9584	0.000139448
2	0	0	1	1	93.5717	-0.952721	-0.954266	-0.128402	3	0.000867829	12	0.9984	0.000122529
2	0	0	1	1	93.6117	-0.912713	-0.914383	-0.117013	3	0.000863223	12	1.0384	0.000106995
2	0	0	1	1	93.6517	-0.872704	-0.874445	-0.0902232	3	0.000859143	12	1.0784	7.88952e-05
2	0	0	1	1	93.6917	-0.832695	-0.834284	-0.0862474	3	0.000855462	12	1.1184	7.19549e-05
2	0	0	1	1	93.7317	-0.792687	-0.794245	-0.0739254	3	0.000852153	12	1.1584	5.87149e-05
2	0	0	1	1	93.7717	-0.752678	-0.754207	-0.0758168	3	0.000849236	12	1.1984	5.71816e-05
2	0	0	1	1	93.8117	-0.712669	-0.714304	-0.0678498	3	0.000846633	12	1.2384	4.84654e-05
2	0	0	1	1	93.8517	-0.672661	-0.674353	-0.0440089	3	0.000844427	12	1.2784	2.96775e-05
2	0	0	1	1	93.8917	-0.632652	-0.634192	-0.0410333	3	0.000842554	12	1.3184	2.6023e-05
2	0	0	1	1	93.9317	-0.592744	-0.594249	-0.0292979	3	0.000841042	12	1.3584	1.74103e-05
2	0	0	1	1	93.9717	-0.552735	-0.554255	-0.0299493	3	0.000839925	12	1.3984	1.65995e-05
2	0	0	1	1	94.0117	-0.512726	-0.514371	-0.0206495	3	0.000839154	12	1.4384	1.06215e-05
2	0	0	1	1	94.0517	-0.472718	-0.474419	0.00462086	3	0.000838846	12	0.000000000000000E+000	-2.19222e-06
2	1	0	1	1	94.0917	-0.432709	-0.434228	0.0108737	3	0.000838987	12	0.012	-4.72166e-06
2	1	0	1	1	94.1317	-0.3927	-0.394211	0.0282184	3	0.000839648	12	0.052	-1.1124e-05
2	1	0	1	1	94.1687	-0.355692	-0.357301	0.05115	4	0.00084081	12	0.089	-1.8276e-05
2	1	0	1	1	94.2087	-0.315684	-0.317238	0.0544192	4	0.000842659	12	0.129	-1.72638e-05
2	1	0	1	1	94.2487	-0.275675	-0.277195	0.0762105	4	0.000845152	12	0.169	-2.11252e-05
2	1	0	1	1	94.2887	-0.235666	-0.2372	0.0816365	4	0.000848381	12	0.209	-1.93641e-05
2	1	0	1	1	94.3287	-0.195658	-0.197382	0.0963142	4	0.000852219	12	0.249	-1.90107e-05
2	1	0	1	1	94.3687	-0.155649	-0.157344	0.135746	4	0.000856776	12	0.289	-2.13587e-05
2	1	0	1	1	94.4087	-0.11574	-0.117295	0.134636	4	0.000861893	12	0.329	-1.57921e-05
2	1	0	1	1	94.4487	-0.0757318	-0.0772828	0.150855	4	0.000867493	12	0.369	-1.16585e-05
2	1	0	1	1	94.4887	-0.0357231	-0.0372694	0.147745	4	0.000873542	12	0.409	-5.50637e-06
2	1	0	1	1	94.5287	0.0042855	0.00263685	0.14973	4	0.000879714	12	0.449	3.94815e-07
2	1	0	1	1	94.5687	0.0442941	0.0427351	0.166593	4	0.000885939	12	0.489	7.11939e-06
2	1	0	1	1	94.6087	0.0843027	0.0827835	0.150883	4	0.000892012	12	0.529	1.24906e-05
2	1	0	1	1	94.6487	0.124311	0.122805	0.152514	4	0.00089799	12	0.569	1.87295e-05
2	1	0	1	1	94.6887	0.16432	0.162782	0.144408	4	0.000904005	12	0.609	2.3507e-05
2	1	0	1	1	94.7287	0.204329	0.202738	0.155191	4	0.000910082	12	0.649	3.14631e-05
2	1	0	1	1	94.7687	0.244337	0.242835	0.16965	4	0.000916379	12	0.689	4.11968e-05
2	1	0	1	1	94.8087	0.284346	0.282814	0.166074	4	0.000922876	12	0.729	4.6968e-05
2	1	0	1	1	94.8487	0.324354	0.322853	0.174067	4	0.000929639	12	0.769	5.61982e-05
2	1	0	1	1	94.8887	0.364263	0.36272	0.175305	4	0.00093669	12	0.809	6.35866e-05
2	1	0	1	1	94.9287	0.404272	0.402668	0.189509	4	0.000944009	12	0.849	7.63094e-05
2	1	0	1	1	94.9687	0.44428	0.442816	0.202985	4	0.00095164	12	0.889	8.98851e-05
2	1	0	1	1	95.0087	0.484289	0.482754	0.201615	4	0.00095955	12	0.929	9.73306e-05
2	1	0	1	1	95.0487	0.524298	0.522782	0.209823	4	0.00096775	12	0.969	0.000109692
2	1	0	1	1	95.0887	0.564306	0.562784	0.211612	4	0.000976253	12	1.009	0.000119092
2	1	0	1	1	95.1287	0.604315	0.602771	0.226881	4	0.000985018	12	1.049	0.000136757
2	1	0	1	1	95.1687	0.644324	0.642872	0.238863	4	0.000994109	12	1.089	0.000153558
2	1	0	1	1	95.2087	0.684332	0.682804	0.237802	4	0.00100348	12	1.129	0.000162372
2	1	0	1	1	95.2487	0.724341	0.722831	0.246362	4	0.00101314	12	1.169	0.000178078
2	1	0	1	1	95.2887	0.764349	0.762796	0.249251	4	0.00102311	12	1.209	0.000190128
2	1	0	1	1	95.3287	0.804258	0.802715	0.263788	4	0.00103337	12	1.249	0.000211747
2	1	0	1	1	95.3687	0.844267	0.842863	0.275252	4	0.00104394	12	1.289	0.000232
2	1	0	1	1	95.4087	0.884275	0.882853	0.276082	4	0.00105482	12	1.329	0.00024374
2	1	0	1	1	95.4487	0.924284	0.922915	0.285105	4	0.00106602	12	1.369	0.000263128
2	1	0	1	1	95.4887	0.964293	0.962825	0.288424	4	0.00107751	12	1.409	0.000277702
2	1	0	1	1	95.5244	1	0.998548	0.297421	4	0.00108804	12	1.4447	0.000296989
2	1	0	1	1	95.5617	0.962692	0.961217	0.273073	4	0.00109839	12	1.482	0.000262482
2	1	0	1	1	95.6017	0.922683	0.921281	0.268522	4	0.00110904	12	1.522	0.000247385
2	1	0	1	1	95.6417	0.882675	0.881224	0.249858	4	0.00111921	12	1.562	0.000220181
2	1	0	1	1	95.6817	0.842666	0.841276	0.240763	4	0.001129	12	1.602	0.000202548
2	1	0	1	1	95.7217	0.802658	0.801149	0.226165	4	0.00113842	12	1.642	0.000181191
2	1	0	1	1	95.7617	0.762749	0.761167	0.223821	4	0.00114745	12	1.682	0.000170365
2	1	0	1	1	95.8017	0.72274	0.721258	0.220952	4	0.00115611	12	1.722	0.000159363
2	1	0	1	1	95.8417	0.682732	0.681233	0.203327	4	0.00116442	12	1.762	0.000138513
2	1	0	1	1	95.8817	0.642723	0.64122	0.194856	4	0.00117237	12	1.802	0.000124945
2	1	0	1	1	95.9217	0.602715	0.601198	0.179708	4	0.00117993	12	1.842	0.00010804
2	1	0	1	1	95.9617	0.562706	0.561135	0.178361	4	0.00118712	12	1.882	0.000100085
2	1	0	1	1	96.0017	0.522697	0.521238	0.175849	4	0.00119399	12	1.922	9.16592e-05
2	1	0	1	1	96.0417	0.482689	0.481193	0.15773	4	0.00120047	12	1.962	7.58985e-05
2	1	0	1	1	96.0817	0.44268	0.441203	0.149589	4	0.00120659	12	2.002	6.59993e-05
2	1	0	1	1	96.1217	0.402671	0.401159	0.136029	4	0.00121236	12	2.042	5.45691e-05
2	1	0	1	1	96.1617	0.362663	0.361051	0.134023	4	0.00121777	12	2.082	4.83893e-05
2	1	0	1	1	96.2017	0.322754	0.321358	0.130207	4	0.00122284	12	2.122	4.18431e-05
2	1	0	1	1	96.2417	0.282746	0.281311	0.113203	4	0.00122753	12	2.162	3.18452e-05
2	1	0	1	1	96.2817	0.242737	0.241258	0.105489	4	0.00123186	12	2.202	2.54501e-05
2	1	0	1	1	96.3217	0.202728	0.201211	0.0885517	4	0.00123583	12	2.242	1.78176e-05
2	1	0	1	1	96.3617	0.16272	0.161147	0.0855864	4	0.00123936	12	2.282	1.3792e-05
2	1	0	1	1	96.4017	0.122711	0.121214	0.0832944	4	0.00124251	12	2.322	1.00964e-05
2	1	0	1	1	96.4417	0.0827024	0.0812121	0.060475	4	0.00124517	12	2.362	4.9113e-06
2	1	0	1	1	96.4817	0.0426938	0.0411987	0.0477475	4	0.00124726	12	2.402	1.96713e-06
2	1	0	1	1	96.5217	0.00268515	0.00119169	0.0193884	4	0.00124871	12	2.442	2.3105e-08
2	0	0	1	1	96.5617	-0.0373235	-0.0390403	-0.000923655	4	0.00124925	12	0.002	3.60598e-08
2	0	0	1	1	96.6017	-0.0773321	-0.0788967	-0.0105444	4	0.00124881	12	0.03	8.31916e-07
2	0	0	1	1	96.6417	-0.117341	-0.118882	-0.0536989	4	0.00124722	12	0.07	6.38386e-06
2	0	0	1	1	96.6817	-0.157249	-0.15879	-0.0735029	4	0.00124454	12	0.11	1.16715e-05
2	0	0	1	1	96.7217	-0.197258	-0.198827	-0.101241	4	0.00124109	12	0.15	2.01293e-05
2	0	0	1	1	96.7617	-0.237267	-0.238927	-0.1104	4	0.00123702	12	0.19	2.63775e-05
2	0	0	1	1	96.8017	-0.277275	-0.278852	-0.0914388	4	0.00123278	12	0.23	2.54979e-05
2	0	0	1	1	96.8417	-0.317284	-0.318831	-0.104328	4	0.00122853	12	0.27	3.32629e-05
2	0	0	1	1	96.8817	-0.357293	-0.358829	-0.0935274	4	0.00122446	12	0.31	3.35603e-05
2	0	0	1	1	96.9217	-0.397301	-0.398828	-0.0997621	4	0.00122069	12	0.35	3.97879e-05
2	0	0	1	1	96.9617	-0.43731	-0.438904	-0.0905525	4	0.00121702	12	0.39	3.97439e-05
2	0	0	1	1	97.0017	-0.477319	-0.478865	-0.073787	4	0.00121353	12	0.43	3.5334e-05
2	0	0	1	1	97.0417	-0.517327	-0.518838	-0.0881056	4	0.00121002	12	0.47	4.57126e-05
2	0	0	1	1	97.0817	-0.557336	-0.558819	-0.0899836	4	0.0012064	12	0.51	5.02845e-05
2	0	0	1	1	97.1217	-0.597344	-0.598914	-0.104919	4	0.00120258	12	0.55	6.28376e-05
2	0	0	1	1	97.1617	-0.637253	-0.638844	-0.104018	4	0.00119846	12	0.59	6.64511e-05
2	0	0	1	1	97.2017	-0.677262	-0.678751	-0.102051	4	0.00119409	12	0.63	6.92669e-05
2	0	0	1	1	97.2417	-0.71727	-0.718744	-0.121234	4	0.00118939	12	0.67	8.7136e-05
2	0	0	1	1	97.2817	-0.757279	-0.758748	-0.12749	4	0.00118434	12	0.71	9.67325e-05
2	0	0	1	1	97.3217	-0.797288	-0.798876	-0.14444	4	0.00117898	12	0.75	0.00011539
2	0	0	1	1	97.3617	-0.837296	-0.838952	-0.145542	4	0.00117324	12	0.79	0.000122103
2	0	0	1	1	97.4017	-0.877305	-0.878866	-0.144436	4	0.00116718	12	0.83	0.00012694
2	0	0	1	1	97.4417	-0.917314	-0.918892	-0.165809	4	0.00116073	12	0.87	0.000152361
2	0	0	1	1	97.4817	-0.957322	-0.95883	-0.172856	4	0.00115388	12	0.91	0.000165739
2	0	0	1	1	97.5217	-0.997331	-0.998903	-0.19443	4	0.00114665	12	0.95	0.000194217
2	0	0	1	0	97.5561	-0.968725	-0.970321	-0.132262	4	0.00114168	12	0.9844	0.000128337
2	0	0	1	0	97.5961	-0.928716	-0.930344	-0.106575	4	0.00113685	12	1.0244	9.91514e-05
2	0	0	1	0	97.6361	-0.888707	-0.890159	-0.0977101	4	0.0011326	12	1.0644	8.69775e-05
2	0	0	1	0	97.6761	-0.848699	-0.850178	-0.101965	4	0.00112872	12	1.1044	8.6688e-05
2	0	0	1	0	97.7161	-0.80869	-0.810194	-0.082675	4	0.00112526	12	1.1444	6.69828e-05
2	0	0	1	0	97.7561	-0.768681	-0.770194	-0.0755865	4	0.00112217	12	1.1844	5.82162e-05
2	0	0	1	0	97.7961	-0.728673	-0.730224	-0.0572398	4	0.00111942	12	1.2244	4.17979e-05
2	0	0	1	0	97.8361	-0.688664	-0.6901	-0.0537287	4	0.00111708	12	1.2644	3.70781e-05
2	0	0	1	0	97.8761	-0.648656	-0.650092	-0.0571588	4	0.00111502	12	1.3044	3.71585e-05
2	0	0	1	0	97.9161	-0.608647	-0.610245	-0.0380738	4	0.00111336	12	1.3444	2.32343e-05
2	0	0	1	0	97.9561	-0.568738	-0.570313	-0.0305752	4	0.00111206	12	1.3844	1.74374e-05
2	0	0	1	0	97.9961	-0.52873	-0.530295	-0.0118234	4	0.00111112	12	1.4244	6.26988e-06
2	1	0	1	0	98.0361	-0.488721	-0.490136	-0.0056162	4	0.00111063	12	1.4644	2.7527e-06
2	1	0	1	0	98.0761	-0.448712	-0.450215	-0.00703355	4	0.00111053	12	0.000000000000000E+000	3.16661e-06
2	1	0	1	0	98.1161	-0.408704	-0.410291	0.0169015	4	0.00111096	12	0.036	-6.93454e-06
2	1	0	1	0	98.1561	-0.368695	-0.370219	0.0286051	4	0.00111196	12	0.076	-1.05901e-05
2	1	0	1	0	98.1931	-0.331687	-0.333239	0.0329201	5	0.00111342	12	0.113	-1.09703e-05
2	1	0	1	0	98.2331	-0.291678	-0.293248	0.0644192	5	0.00111565	12	0.153	-1.88908e-05
2	1	0	1	0	98.2731	-0.25167	-0.25325	0.0772366	5	0.00111857	12	0.193	-1.95602e-05
2	1	0	1	0	98.3131	-0.211661	-0.213223	0.104164	5	0.00112213	12	0.233	-2.22103e-05
2	1	0	1	0	98.3531	-0.171653	-0.173093	0.117627	5	0.00112644	12	0.273	-2.03604e-05
2	1	0	1	0	98.3931	-0.131744	-0.133271	0.112911	5	0.00113129	12	0.313	-1.50478e-05
2	1	0	1	0	98.4331	-0.0917352	-0.0932814	0.14203	5	0.00113671	12	0.353	-1.32488e-05
2	1	0	1	0	98.4731	-0.0517266	-0.053338	0.147627	5	0.00114259	12	0.393	-7.87414e-06
2	1	0	1	0	98.5131	-0.011718	-0.0133416	0.161023	5	0.00114871	12	0.433	-2.14829e-06
2	1	0	1	0	98.5531	0.0282907	0.0269063	0.155099	5	0.00115496	12	0.473	4.17315e-06
2	1	0	1	0	98.5931	0.0682993	0.066769	0.138123	5	0.00116104	12	0.513	9.22233e-06
2	1	0	1	0	98.6331	0.108308	0.106785	0.148841	5	0.00116703	12	0.553	1.58939e-05
2	1	0	1	0	98.6731	0.148317	0.146768	0.147622	5	0.00117299	12	0.593	2.16662e-05
2	1	0	1	0	98.7131	0.188325	0.186839	0.156771	5	0.001179	12	0.633	2.92909e-05
2	1	0	1	0	98.7531	0.228334	0.226869	0.152757	5	0.00118518	12	0.673	3.46559e-05
2	1	0	1	0	98.7931	0.268342	0.266783	0.154324	5	0.00119153	12	0.713	4.11711e-05
2	1	0	1	0	98.8331	0.308351	0.306798	0.168676	5	0.00119816	12	0.753	5.17495e-05
2	1	0	1	0	98.8731	0.34826	0.346729	0.175579	5	0.00120505	12	0.793	6.08785e-05
2	1	0	1	0	98.9131	0.388268	0.386808	0.186392	5	0.00121222	12	0.833	7.2098e-05
2	1	0	1	0	98.9531	0.428277	0.42682	0.185313	5	0.00121968	12	0.873	7.90953e-05
2	1	0	1	0	98.9931	0.468286	0.466675	0.190625	5	0.00122743	12	0.913	8.896e-05
2	1	0	1	0	99.0331	0.508294	0.506773	0.204644	5	0.00123547	12	0.953	0.000103708
2	1	0	1	0	99.0731	0.548303	0.546784	0.212077	5	0.0012438	12	0.993	0.000115961
2	1	0	1	0	99.1131	0.588311	0.586877	0.22225	5	0.00125241	12	1.033	0.000130434
2	1	0	1	0	99.1531	0.62832	0.626816	0.221956	5	0.00126133	12	1.073	0.000139126
2	1	0	1	0	99.1931	0.668329	0.66679	0.227906	5	0.00127053	12	1.113	0.000151965
2	1	0	1	0	99.2331	0.708337	0.706827	0.241447	5	0.00128002	12	1.153	0.000170661
2	1	0	1	0	99.2731	0.748346	0.746777	0.248966	5	0.00128982	12	1.193	0.000185922
2	1	0	1	0	99.3131	0.788355	0.786907	0.258517	5	0.0012999	12	1.233	0.000203429
2	1	0	1	0	99.3531	0.828263	0.826803	0.259129	5	0.0013103	12	1.273	0.000214249
2	1	0	1	0	99.3931	0.868272	0.866791	0.266091	5	0.00132099	12	1.313	0.000230645
2	1	0	1	0	99.4331	0.90828	0.906817	0.27976	5	0.001332	12	1.353	0.000253691
2	1	0	1	0	99.4731	0.948289	0.946825	0.287813	5	0.00134332	12	1.393	0.000272508
2	1	0	1	0	99.5131	0.988298	0.986899	0.296713	5	0.00135494	12	1.433	0.000292825
2	1	0	1	0	99.5461	0.978696	0.977288	0.278227	5	0.00136436	12	1.466	0.000271907
2	1	0	1	0	99.5861	0.938687	0.937275	0.258633	5	0.00137512	12	1.506	0.00024241
2	1	0	1	0	99.6261	0.898678	0.897222	0.24568	5	0.00138539	12	1.546	0.00022043
2	1	0	1	0	99.6661	0.85867	0.857255	0.242313	5	0.00139529	12	1.586	0.000207724
2	1	0	1	0	99.7061	0.818661	0.817196	0.232229	5	0.00140481	12	1.626	0.000189777
2	1	0	1	0	99.7461	0.778753	0.777312	0.226783	5	0.00141394	12	1.666	0.000176281
2	1	0	1	0	99.7861	0.738744	0.737306	0.211304	5	0.00142271	12	1.706	0.000155796
2	1	0	1	0	99.8261	0.698735	0.697199	0.198808	5	0.00143109	12	1.746	0.000138609
2	1	0	1	0	99.8661	0.658727	0.65722	0.196306	5	0.00143914	12	1.786	0.000129016
2	1	0	1	0	99.9061	0.618718	0.617168	0.186218	5	0.00144681	12	1.826	0.000114928
2	1	0	1	0	99.9461	0.578709	0.577198	0.181735	5	0.00145411	12	1.866	0.000104897
2	1	0	1	0	99.9861	0.538701	0.537294	0.165274	5	0.00146107	12	1.906	8.8801e-05
2	1	0	1	0	100.026	0.498692	0.497172	0.152336	5	0.00146764	12	1.946	7.57373e-05
2	1	0	1	0	100.066	0.458683	0.45718	0.151174	5	0.00147388	12	1.986	6.9114e-05
2	1	0	1	0	100.106	0.418675	0.417117	0.142067	5	0.00147975	12	2.026	5.92586e-05
2	1	0	1	0	100.146	0.378666	0.37718	0.137292	5	0.00148526	12	2.066	5.17837e-05
2	1	0	1	0	100.186	0.338658	0.337209	0.120164	5	0.00149043	12	2.106	4.05203e-05
2	1	0	1	0	100.226	0.298749	0.297182	0.107428	5	0.00149523	12	2.146	3.19256e-05
2	1	0	1	0	100.266	0.25874	0.257227	0.106531	5	0.00149968	12	2.186	2.74027e-05
2	1	0	1	0	100.306	0.218732	0.217198	0.096714	5	0.00150376	12	2.226	2.10061e-05
2	1	0	1	0	100.346	0.178723	0.177257	0.0915371	5	0.00150744	12	2.266	1.62255e-05
2	1	0	1	0	100.386	0.138714	0.137277	0.0734374	5	0.00151073	12	2.306	1.00813e-05
2	1	0	1	0	100.426	0.0987059	0.0971852	0.0541429	5	0.00151354	12	2.346	5.26189e-06
2	1	0	1	0	100.466	0.0586972	0.0571983	0.0505783	5	0.00151585	12	2.386	2.89299e-06
2	1	0	1	0	100.506	0.0186886	0.017151	0.0311978	5	0.00151755	12	2.426	5.35073e-07
2	1	0	1	0	100.546	-0.02132	-0.0228582	0.0171279	5	0.00151844	12	2.466	-3.91513e-07
2	0	0	1	0	100.586	-0.0613287	-0.0627474	-0.0133784	5	0.00151843	12	0.014	8.39458e-07
2	0	0	1	0	100.626	-0.101337	-0.102883	-0.0584453	5	0.00151723	12	0.054	6.01301e-06
2	0	0	1	0	100.666	-0.141246	-0.14284	-0.0691398	5	0.00151494	12	0.094	9.87593e-06
2	0	0	1	0	100.706	-0.181255	-0.18285	-0.0934814	5	0.00151174	12	0.134	1.70931e-05
2	0	0	1	0	100.746	-0.221263	-0.222841	-0.0977065	5	0.00150782	12	0.174	2.17731e-05
2	0	0	1	0	100.786	-0.261272	-0.262712	-0.105963	5	0.00150361	12	0.214	2.78378e-05
2	0	0	1	0	100.826	-0.301281	-0.302829	-0.122824	5	0.00149926	12	0.254	3.71948e-05
2	0	0	1	0	100.866	-0.341289	-0.342855	-0.101143	5	0.00149507	12	0.294	3.46774e-05
2	0	0	1	0	100.906	-0.381298	-0.382908	-0.0982875	5	0.00149116	12	0.334	3.7635e-05
2	0	0	1	0	100.946	-0.421306	-0.422878	-0.0848209	5	0.00148742	12	0.374	3.58689e-05
2	0	0	1	0	100.986	-0.461315	-0.462766	-0.0883607	5	0.00148388	12	0.414	4.08903e-05
2	0	0	1	0	101.026	-0.501324	-0.502881	-0.100124	5	0.00148035	12	0.454	5.03507e-05
2	0	0	1	0	101.066	-0.541332	-0.542898	-0.0911179	5	0.00147679	12	0.494	4.94677e-05
2	0	0	1	0	101.106	-0.581341	-0.582903	-0.0979591	5	0.00147305	12	0.534	5.71006e-05
2	0	0	1	0	101.146	-0.62125	-0.622758	-0.0976106	5	0.00146904	12	0.574	6.07878e-05
2	0	0	1	0	101.186	-0.661258	-0.662679	-0.114497	5	0.00146479	12	0.614	7.58749e-05
2	0	0	1	0	101.226	-0.701267	-0.702825	-0.130078	5	0.00146018	12	0.654	9.14222e-05
2	0	0	1	0	101.266	-0.741276	-0.742828	-0.126775	5	0.00145528	12	0.694	9.4172e-05
2	0	0	1	0	101.306	-0.781284	-0.782852	-0.136401	5	0.00145004	12	0.734	0.000106782
2	0	0	1	0	101.346	-0.821293	-0.822819	-0.138146	5	0.00144444	12	0.774	0.000113669
2	0	0	1	0	101.386	-0.861302	-0.862802	-0.157315	5	0.00143852	12	0.814	0.000135732
2	0	0	1	0	101.426	-0.90131	-0.902927	-0.174135	5	0.00143219	12	0.854	0.000157231
2	0	0	1	0	101.466	-0.941319	-0.942918	-0.171617	5	0.00142552	12	0.894	0.000161821
2	0	0	1	0	101.506	-0.981327	-0.982939	-0.18404	5	0.00141844	12	0.934	0.0001809
2	0	0	1	1	101.54	-0.984728	-0.98631	-0.137659	5	0.00141265	12	0.9684	0.000135775
2	0	0	1	1	101.58	-0.94472	-0.946251	-0.114479	5	0.00140755	12	1.0084	0.000108326
2	0	0	1	1	101.62	-0.904711	-0.906268	-0.113902	5	0.00140309	12	1.0484	0.000103226
2	0	0	1	1	101.66	-0.864702	-0.866413	-0.0990149	5	0.00139904	12	1.0884	8.57878e-05
2	0	0	1	1	101.7	-0.824694	-0.826399	-0.074242	5	0.00139544	12	1.1284	6.13535e-05
2	0	0	1	1	101.74	-0.784685	-0.786232	-0.0754981	5	0.00139219	12	1.1684	5.9359e-05
2	0	0	1	1	101.78	-0.744676	-0.746216	-0.064074	5	0.00138931	12	1.2084	4.7813e-05
2	0	0	1	1	101.82	-0.704668	-0.706221	-0.0665503	5	0.00138679	12	1.2484	4.69992e-05
2	0	0	1	1	101.86	-0.664659	-0.666354	-0.0523686	5	0.00138459	12	1.2884	3.48961e-05
2	0	0	1	1	101.9	-0.62465	-0.626241	-0.0298134	5	0.00138279	12	1.3284	1.86704e-05
2	0	0	1	1	101.94	-0.584742	-0.586278	-0.03108	5	0.00138132	12	1.3684	1.82215e-05
2	0	0	1	1	101.98	-0.544733	-0.546297	-0.0193326	5	0.00138022	12	1.4084	1.05613e-05
2	0	0	1	1	102.02	-0.504724	-0.506256	-0.019921	5	0.00137954	12	1.4484	1.00851e-05
2	0	0	1	1	102.06	-0.464716	-0.466423	-0.00394481	5	0.00137923	12	0.006	1.83995e-06
2	1	0	1	1	102.1	-0.424707	-0.426324	0.0234533	5	0.00137946	12	0.022	-9.9987e-06
2	1	0	1	1	102.14	-0.384699	-0.386286	0.0264037	5	0.0013802	12	0.062	-1.01994e-05
2	1	0	1	1	102.177	-0.347691	-0.349341	0.0387505	6	0.00138139	12	0.099	-1.35371e-05
2	1	0	1	1	102.217	-0.307682	-0.30926	0.0719985	6	0.00138337	12	0.139	-2.22662e-05
2	1	0	1	1	102.257	-0.267673	-0.269197	0.073725	6	0.00138598	12	0.179	-1.98465e-05
2	1	0	1	1	102.297	-0.227665	-0.229204	0.0959515	6	0.00138927	12	0.219	-2.19925e-05
2	1	0	1	1	102.337	-0.187656	-0.189249	0.101149	6	0.0013933	12	0.259	-1.91425e-05
2	1	0	1	1	102.377	-0.147647	-0.149288	0.118566	6	0.00139789	12	0.299	-1.77005e-05
2	1	0	1	1	102.417	-0.107739	-0.109331	0.153389	6	0.00140312	12	0.339	-1.67701e-05
2	1	0	1	1	102.457	-0.0677301	-0.0693132	0.14719	6	0.00140881	12	0.379	-1.02022e-05
2	1	0	1	1	102.497	-0.0277214	-0.0292913	0.158148	6	0.00141484	12	0.419	-4.63236e-06
2	1	0	1	1	102.537	0.0122872	0.010738	0.148813	6	0.00142107	12	0.459	1.59795e-06
2	1	0	1	1	102.577	0.0522958	0.0506813	0.150842	6	0.00142718	12	0.499	7.64485e-06
2	1	0	1	1	102.617	0.0923045	0.0908348	0.161845	6	0.00143321	12	0.539	1.47012e-05
2	1	0	1	1	102.657	0.132313	0.13079	0.148182	6	0.00143914	12	0.579	1.93807e-05
2	1	0	1	1	102.697	0.172322	0.170843	0.15186	6	0.00144509	12	0.619	2.59441e-05
2	1	0	1	1	102.737	0.21233	0.210775	0.148604	6	0.00145117	12	0.659	3.13221e-05
2	1	0	1	1	102.777	0.252339	0.250778	0.162405	6	0.0014574	12	0.699	4.07277e-05
2	1	0	1	1	102.817	0.292348	0.290866	0.174081	6	0.0014639	12	0.739	5.06343e-05
2	1	0	1	1	102.857	0.332256	0.330739	0.172071	6	0.00147064	12	0.779	5.69106e-05
2	1	0	1	1	102.897	0.372265	0.370807	0.179963	6	0.00147766	12	0.819	6.67313e-05
2	1	0	1	1	102.937	0.412273	0.410669	0.182846	6	0.00148497	12	0.859	7.50892e-05
2	1	0	1	1	102.977	0.452282	0.450731	0.196912	6	0.00149256	12	0.899	8.87545e-05
2	1	0	1	1	103.017	0.492291	0.490865	0.208019	6	0.00150046	12	0.939	0.000102109
2	1	0	1	1	103.057	0.532299	0.530824	0.208126	6	0.00150863	12	0.979	0.000110478
2	1	0	1	1	103.097	0.572308	0.570812	0.215991	6	0.00151708	12	1.019	0.00012329
2	1	0	1	1	103.137	0.612317	0.610748	0.21967	6	0.00152583	12	1.059	0.000134163
2	1	0	1	1	103.177	0.652325	0.650787	0.233657	6	0.00153486	12	1.099	0.000152061
2	1	0	1	1	103.217	0.692334	0.690907	0.242842	6	0.00154421	12	1.139	0.000167782
2	1	0	1	1	103.257	0.732342	0.730901	0.24393	6	0.00155383	12	1.179	0.000178288
2	1	0	1	1	103.297	0.772351	0.770863	0.25286	6	0.00156375	12	1.219	0.00019492
2	1	0	1	1	103.337	0.81226	0.810716	0.256161	6	0.00157398	12	1.259	0.000207674
2	1	0	1	1	103.377	0.852268	0.850842	0.270499	6	0.0015845	12	1.299	0.000230152
2	1	0	1	1	103.417	0.892277	0.890895	0.280321	6	0.00159534	12	1.339	0.000249737
2	1	0	1	1	103.457	0.932286	0.930879	0.28294	6	0.00160647	12	1.379	0.000263383
2	1	0	1	1	103.497	0.972294	0.97093	0.290889	6	0.00161793	12	1.419	0.000282432
2	1	0	1	1	103.53	0.994699	0.993303	0.280288	6	0.00162754	12	1.452	0.000278411
2	1	0	1	1	103.57	0.95469	0.953214	0.262205	6	0.00163844	12	1.492	0.000249938
2	1	0	1	1	103.61	0.914682	0.913176	0.258745	6	0.00164884	12	1.532	0.00023628
2	1	0	1	1	103.65	0.874673	0.873286	0.252461	6	0.00165887	12	1.572	0.000220471
2	1	0	1	1	103.69	0.834665	0.833254	0.235344	6	0.00166848	12	1.612	0.000196101
2	1	0	1	1	103.73	0.794656	0.793164	0.227383	6	0.0016777	12	1.652	0.000180352
2	1	0	1	1	103.77	0.754747	0.753229	0.213238	6	0.00168658	12	1.692	0.000160617
2	1	0	1	1	103.81	0.714739	0.713198	0.210909	6	0.00169506	12	1.732	0.00015042
2	1	0	1	1	103.85	0.67473	0.673312	0.206607	6	0.00170322	12	1.772	0.000139111
2	1	0	1	1	103.89	0.634721	0.633228	0.189919	6	0.00171099	12	1.812	0.000120262
2	1	0	1	1	103.93	0.594713	0.593256	0.181983	6	0.0017184	12	1.852	0.000107963
2	1	0	1	1	103.97	0.554704	0.553151	0.167588	6	0.00172546	12	1.892	9.27012e-05
2	1	0	1	1	104.01	0.514696	0.513161	0.166183	6	0.00173213	12	1.932	8.52784e-05
2	1	0	1	1	104.05	0.474687	0.473267	0.161921	6	0.00173849	12	1.972	7.66319e-05
2	1	0	1	1	104.09	0.434678	0.433198	0.144967	6	0.00174446	12	2.012	6.27993e-05
2	1	0	1	1	104.13	0.39467	0.393214	0.138246	6	0.00175008	12	2.052	5.43601e-05
2	1	0	1	1	104.17	0.354661	0.353127	0.123025	6	0.00175536	12	2.092	4.34436e-05
2	1	0	1	1	104.21	0.314752	0.313168	0.121136	6	0.00176027	12	2.132	3.7936e-05
2	1	0	1	1	104.25	0.274744	0.273261	0.118202	6	0.00176484	12	2.172	3.23001e-05
2	1	0	1	1	104.29	0.234735	0.233265	0.100687	6	0.00176904	12	2.212	2.34868e-05
2	1	0	1	1	104.33	0.194727	0.193273	0.0925561	6	0.00177285	12	2.252	1.78886e-05
2	1	0	1	1	104.37	0.154718	0.153176	0.0748087	6	0.00177628	12	2.292	1.14589e-05
2	1	0	1	1	104.41	0.114709	0.113149	0.0704399	6	0.00177925	12	2.332	7.97019e-06
2	1	0	1	1	104.45	0.0747007	0.0731916	0.0670483	6	0.00178178	12	2.372	4.90738e-06
2	1	0	1	1	104.49	0.034692	0.0331856	0.0404707	6	0.0017837	12	2.412	1.34305e-06
2	1	0	1	1	104.53	-0.00531657	-0.00684155	0.0237565	6	0.00178492	12	2.452	-1.62531e-07
2	0	0	1	1	104.57	-0.0453252	-0.0469165	-0.011022	6	0.00178528	12	0.000000000000000E+000	5.17114e-07
2	0	0	1	1	104.61	-0.0853339	-0.0869861	-0.0370969	6	0.0017845	12	0.04	3.22692e-06
2	0	0	1	1	104.65	-0.125343	-0.126927	-0.045042	6	0.00178265	12	0.08	5.71706e-06
2	0	0	1	1	104.69	-0.165251	-0.166769	-0.0834297	6	0.00177975	12	0.12	1.39135e-05
2	0	0	1	1	104.73	-0.20526	-0.206767	-0.0950024	6	0.00177604	12	0.16	1.96434e-05
2	0	0	1	1	104.77	-0.245268	-0.246835	-0.114028	6	0.00177191	12	0.2	2.8146e-05
2	0	0	1	1	104.81	-0.285277	-0.286951	-0.114951	6	0.0017675	12	0.24	3.29855e-05
2	0	0	1	1	104.85	-0.325286	-0.326895	-0.0889746	6	0.00176324	12	0.28	2.90853e-05
2	0	0	1	1	104.89	-0.365294	-0.366823	-0.0979991	6	0.00175918	12	0.32	3.59483e-05
2	0	0	1	1	104.93	-0.405303	-0.406827	-0.088567	6	0.00175536	12	0.36	3.60314e-05
2	0	0	1	1	104.97	-0.445312	-0.446877	-0.0964551	6	0.00175174	12	0.4	4.31035e-05
2	0	0	1	1	105.01	-0.48532	-0.486948	-0.0880501	6	0.00174817	12	0.44	4.28758e-05
2	0	0	1	1	105.05	-0.525329	-0.526869	-0.0770916	6	0.00174468	12	0.48	4.06172e-05
2	0	0	1	1	105.09	-0.565338	-0.566886	-0.0938858	6	0.00174101	12	0.52	5.32225e-05
2	0	0	1	1	105.13	-0.605246	-0.606778	-0.0978215	6	0.0017371	12	0.56	5.9356e-05
2	0	0	1	1	105.17	-0.645255	-0.646842	-0.114872	6	0.00173295	12	0.6	7.43041e-05
2	0	0	1	1	105.21	-0.685263	-0.686849	-0.114156	6	0.00172846	12	0.64	7.84077e-05
2	0	0	1	1	105.25	-0.725272	-0.72681	-0.111826	6	0.0017237	12	0.68	8.12765e-05
2	0	0	1	1	105.29	-0.765281	-0.766779	-0.131296	6	0.00171857	12	0.72	0.000100675
2	0	0	1	1	105.33	-0.805289	-0.806751	-0.137537	6	0.00171312	12	0.76	0.000110958
2	0	0	1	1	105.37	-0.845298	-0.846916	-0.156293	6	0.00170734	12	0.8	0.000132367
2	0	0	1	1	105.41	-0.885307	-0.886934	-0.157723	6	0.00170115	12	0.84	0.00013989
2	0	0	1	1	105.45	-0.925315	-0.926854	-0.154995	6	0.00169464	12	0.88	0.000143658
2	0	0	1	1	105.49	-0.965324	-0.966862	-0.177516	6	0.00168772	12	0.92	0.000171633
2	0	0	1	0	105.526	-1.00003	-1.00195	-0.212806	6	0.00168125	12	0.9553	0.000213222
2	0	0	1	0	105.565	-0.960723	-0.962288	-0.125755	6	0.0016759	12	0.9944	0.000121012
2	0	0	1	0	105.605	-0.920714	-0.922264	-0.113804	6	0.00167122	12	1.0344	0.000104957
2	0	0	1	0	105.645	-0.880706	-0.882293	-0.0930264	6	0.00166701	12	1.0744	8.20765e-05
2	0	0	1	0	105.685	-0.840697	-0.842164	-0.0838093	6	0.00166326	12	1.1144	7.05812e-05
2	0	0	1	0	105.725	-0.800688	-0.80208	-0.0892091	6	0.00165985	12	1.1544	7.15529e-05
2	0	0	1	0	105.765	-0.76068	-0.762224	-0.0725346	6	0.00165682	12	1.1944	5.52876e-05
2	0	0	1	0	105.805	-0.720671	-0.722257	-0.065238	6	0.00165416	12	1.2344	4.71186e-05
2	0	0	1	0	105.845	-0.680663	-0.682216	-0.0474256	6	0.00165182	12	1.2744	3.23545e-05
2	0	0	1	0	105.885	-0.640654	-0.642088	-0.0404266	6	0.00164988	12	1.3144	2.59574e-05
2	0	0	1	0	105.925	-0.600645	-0.602065	-0.0450827	6	0.00164824	12	1.3544	2.71427e-05
2	0	0	1	0	105.965	-0.560737	-0.562299	-0.027582	6	0.001647	12	1.3944	1.55093e-05
2	0	0	1	0	106.005	-0.520728	-0.522294	-0.0197706	6	0.00164613	12	1.4344	1.03261e-05
2	0	0	1	0	106.045	-0.480719	-0.482261	-0.000111314	6	0.00164565	12	1.4744	5.36823e-08
2	1	0	1	0	106.085	-0.440711	-0.442124	0.0107859	6	0.00164567	12	0.006	-4.76873e-06
2	1	0	1	0	106.125	-0.400702	-0.402143	0.00985083	6	0.00164615	12	0.046	-3.96144e-06
2	1	0	0	0	106.159	-0.366795	-0.368078	0.00667223	6	0.00164703	12	0.0799	-2.4559e-06